color_idx_ind,target_acc,mode,response_deadline,block_number,trials_training.thisRepN,trials_training.thisTrialN,trials_training.thisN,trials_training.thisIndex,trials_training_deadline.thisRepN,trials_training_deadline.thisTrialN,trials_training_deadline.thisN,trials_training_deadline.thisIndex,blocks.thisRepN,blocks.thisTrialN,blocks.thisN,blocks.thisIndex,trials_staircase.thisRepN,trials_staircase.thisTrialN,trials_staircase.thisN,trials_staircase.thisIndex,trials.thisRepN,trials.thisTrialN,trials.thisN,trials.thisIndex,stimulus_ind.started,stimulus_ind.stopped,key_resp_ind.keys,key_resp_ind.rt,key_resp_ind.started,key_resp_ind.stopped,fixation_cross_1_ind.started,fixation_cross_1_ind.stopped,text.started,text.stopped,dummy_text.started,dummy_text.stopped,stim_ind_color_rgb_r,stim_ind_color_rgb_g,stim_ind_color_rgb_b,text_break_block.started,text_break_block.stopped,participant,session,accuracy_weighting,color_mapping,block_difficulties,date,expName,psychopyVersion,frameRate,
1,0.9,training,1000000000000,,0,0,0,0,,,,,,,,,,,,,,,,,584.4667633150001,None,f,1.1807295480000448,584.5668648980001,None,583.9703153239999,584.383411446,585.77703803,586.2669752400001,585.77703803,None,,,,,,5,001,exponential,bryg,0.35-0.75,2021_May_18_1042,color_judgement_and_subjective_perception,2020.2.10,60.06465852373194,
3,0.9,training,1000000000000,,0,1,1,1,,,,,,,,,,,,,,,,,586.8669700510001,None,k,0.6044963470001221,586.9670787240001,None,586.3670052829999,586.783907509,587.6012642659999,588.101551053,587.6012642659999,None,,,,,,5,001,exponential,bryg,0.35-0.75,2021_May_18_1042,color_judgement_and_subjective_perception,2020.2.10,60.06465852373194,
2,0.9,training,1000000000000,,0,2,2,2,,,,,,,,,,,,,,,,,588.701360804,None,j,0.3862031090000073,588.801373997,None,588.2014926809999,588.618318828,589.2182193079999,589.7184126660001,589.2182193079999,None,,,,,,5,001,exponential,bryg,0.35-0.75,2021_May_18_1042,color_judgement_and_subjective_perception,2020.2.10,60.06465852373194,
1,0.9,training,1000000000000,,0,3,3,3,,,,,,,,,,,,,,,,,590.318332979,None,f,0.457210072999942,590.418391024,None,589.818429579,590.235127772,590.9016780789999,591.401982039,590.9016780789999,None,,,,,,5,001,exponential,bryg,0.35-0.75,2021_May_18_1042,color_judgement_and_subjective_perception,2020.2.10,60.06465852373194,
3,0.9,training,1000000000000,,0,4,4,4,,,,,,,,,,,,,,,,,592.0021429990001,None,k,0.8933336039999631,592.1022349619999,None,591.5018235030001,591.9188145489999,593.0194611989999,593.519783412,593.0194611989999,None,,,,,,5,001,exponential,bryg,0.35-0.75,2021_May_18_1042,color_judgement_and_subjective_perception,2020.2.10,60.06465852373194,
1,0.9,training,1000000000000,,0,5,5,5,,,,,,,,,,,,,,,,,594.119778135,None,f,0.5118301410000186,594.2197774079999,None,593.619525378,594.036545131,594.7532383500001,595.253421176,594.7532383500001,None,,,,,,5,001,exponential,bryg,0.35-0.75,2021_May_18_1042,color_judgement_and_subjective_perception,2020.2.10,60.06465852373194,
0,0.9,training,1000000000000,,0,6,6,6,,,,,,,,,,,,,,,,,595.8534964920001,None,d,0.5780964870000389,595.9535057889999,None,595.3533351939999,595.7701664279999,596.5533571909999,597.053631897,596.5533571909999,None,,,,,,5,001,exponential,bryg,0.35-0.75,2021_May_18_1042,color_judgement_and_subjective_perception,2020.2.10,60.06465852373194,
1,0.9,training,1000000000000,,0,7,7,7,,,,,,,,,,,,,,,,,597.637875219,None,f,0.5456606909999664,597.737924765,None,597.1536050599999,597.554642749,598.304604366,598.8045801449999,598.304604366,None,,,,,,5,001,exponential,bryg,0.35-0.75,2021_May_18_1042,color_judgement_and_subjective_perception,2020.2.10,60.06465852373194,
3,0.9,training,1000000000000,,0,8,8,8,,,,,,,,,,,,,,,,,599.404885071,None,k,0.6027286630001072,599.504853774,None,598.9045637410001,599.3214867329999,600.1381817759999,600.6385081289999,600.1381817759999,None,,,,,,5,001,exponential,bryg,0.35-0.75,2021_May_18_1042,color_judgement_and_subjective_perception,2020.2.10,60.06465852373194,
0,0.9,training,1000000000000,,0,9,9,9,,,,,,,,,,,,,,,,,601.2384759749999,None,d,0.40099269000006643,601.3385693219999,None,600.738348233,601.155012094,601.7716248799999,602.271999405,601.7716248799999,None,,,,,,5,001,exponential,bryg,0.35-0.75,2021_May_18_1042,color_judgement_and_subjective_perception,2020.2.10,60.06465852373194,
2,0.9,training,1000000000000,,0,10,10,10,,,,,,,,,,,,,,,,,602.856223617,None,j,0.4156615200001852,602.9559089640001,None,602.355929078,602.7726410280001,603.3893751029999,603.889685387,603.3893751029999,None,,,,,,5,001,exponential,bryg,0.35-0.75,2021_May_18_1042,color_judgement_and_subjective_perception,2020.2.10,60.06465852373194,
0,0.9,training,1000000000000,,0,11,11,11,,,,,,,,,,,,,,,,,604.489772049,None,d,0.4938533259999076,604.589796136,None,603.989456702,604.4064581670001,605.106445649,605.60659993,605.106445649,None,,,,,,5,001,exponential,bryg,0.35-0.75,2021_May_18_1042,color_judgement_and_subjective_perception,2020.2.10,60.06465852373194,
3,0.9,training,1000000000000,,0,12,12,12,,,,,,,,,,,,,,,,,606.20662714,None,k,0.552878316000033,606.3067228010001,None,605.7063643939999,606.123217338,606.890067146,607.3745095969999,606.890067146,None,,,,,,5,001,exponential,bryg,0.35-0.75,2021_May_18_1042,color_judgement_and_subjective_perception,2020.2.10,60.06465852373194,
1,0.9,training,1000000000000,,0,13,13,13,,,,,,,,,,,,,,,,,607.974675112,None,f,0.6412456850000581,608.074349461,None,607.4744447679999,607.8911450899999,608.741037717,609.2412055359999,608.741037717,None,,,,,,5,001,exponential,bryg,0.35-0.75,2021_May_18_1042,color_judgement_and_subjective_perception,2020.2.10,60.06465852373194,
2,0.9,training,1000000000000,,0,14,14,14,,,,,,,,,,,,,,,,,609.8414513050001,None,j,0.40614577500014093,609.9414243719999,None,609.341232285,609.758163781,610.3747595159999,610.8749434,610.3747595159999,None,,,,,,5,001,exponential,bryg,0.35-0.75,2021_May_18_1042,color_judgement_and_subjective_perception,2020.2.10,60.06465852373194,
3,0.9,training,1000000000000,,0,15,15,15,,,,,,,,,,,,,,,,,611.4751210420001,None,k,0.6206056430000899,611.5750058739999,None,610.974858999,611.3914803280001,612.224973857,612.709392874,612.224973857,None,,,,,,5,001,exponential,bryg,0.35-0.75,2021_May_18_1042,color_judgement_and_subjective_perception,2020.2.10,60.06465852373194,
0,0.9,training,1000000000000,,0,16,16,16,,,,,,,,,,,,,,,,,613.309510249,None,d,0.4902990619998491,613.409304503,None,612.809343302,613.226048399,613.926012842,614.4263268189999,613.926012842,None,,,,,,5,001,exponential,bryg,0.35-0.75,2021_May_18_1042,color_judgement_and_subjective_perception,2020.2.10,60.06465852373194,
2,0.9,training,1000000000000,,0,17,17,17,,,,,,,,,,,,,,,,,615.0264716999999,None,j,0.4291764229999444,615.1264274050001,None,614.5262304050001,614.9431177360001,615.5763526029999,616.076460867,615.5763526029999,None,,,,,,5,001,exponential,bryg,0.35-0.75,2021_May_18_1042,color_judgement_and_subjective_perception,2020.2.10,60.06465852373194,
1,0.9,training,1000000000000,,0,18,18,18,,,,,,,,,,,,,,,,,616.676666943,None,f,0.29121663800015085,616.7763875740001,None,616.1763986089999,616.593277712,617.093218655,617.5776143639999,617.093218655,None,,,,,,5,001,exponential,bryg,0.35-0.75,2021_May_18_1042,color_judgement_and_subjective_perception,2020.2.10,60.06465852373194,
2,0.9,training,1000000000000,,0,19,19,19,,,,,,,,,,,,,,,,,618.177712392,None,j,0.3019500660000176,618.277639861,None,617.6775679900001,618.0942170939999,618.610884543,619.1111296939999,618.610884543,None,,,,,,5,001,exponential,bryg,0.35-0.75,2021_May_18_1042,color_judgement_and_subjective_perception,2020.2.10,60.06465852373194,
3,0.9,training,1000000000000,,0,20,20,20,,,,,,,,,,,,,,,,,619.7112539850001,None,k,0.3121071269999902,619.8113829759999,None,619.2110332660001,619.627757525,620.1446176979999,620.64467387,620.1446176979999,None,,,,,,5,001,exponential,bryg,0.35-0.75,2021_May_18_1042,color_judgement_and_subjective_perception,2020.2.10,60.06465852373194,
0,0.9,training,1000000000000,,0,21,21,21,,,,,,,,,,,,,,,,,621.244705148,None,d,0.43475142199986294,621.344818804,None,620.7446653220001,621.1615060759999,621.8113498829999,622.3116164439999,621.8113498829999,None,,,,,,5,001,exponential,bryg,0.35-0.75,2021_May_18_1042,color_judgement_and_subjective_perception,2020.2.10,60.06465852373194,
1,0.9,training,1000000000000,,0,22,22,22,,,,,,,,,,,,,,,,,622.896072526,None,f,0.487842333999879,622.995796129,None,622.3957327439999,622.8124506590001,623.5123343470001,624.0126449579999,623.5123343470001,None,,,,,,5,001,exponential,bryg,0.35-0.75,2021_May_18_1042,color_judgement_and_subjective_perception,2020.2.10,60.06465852373194,
3,0.9,training,1000000000000,,0,23,23,23,,,,,,,,,,,,,,,,,624.6128595270001,None,k,0.38669907299981787,624.7128771910001,None,624.1125738259999,624.5295080469999,625.1295407470001,625.6296266820001,625.1295407470001,None,,,,,,5,001,exponential,bryg,0.35-0.75,2021_May_18_1042,color_judgement_and_subjective_perception,2020.2.10,60.06465852373194,
2,0.9,training,1000000000000,,0,24,24,24,,,,,,,,,,,,,,,,,626.229787334,None,j,0.22586584999999104,626.3297283,None,625.729642941,626.146317026,626.57977118,627.0798148590001,626.57977118,None,,,,,,5,001,exponential,bryg,0.35-0.75,2021_May_18_1042,color_judgement_and_subjective_perception,2020.2.10,60.06465852373194,
0,0.9,training,1000000000000,,0,25,25,25,,,,,,,,,,,,,,,,,627.664104087,None,d,0.3593687709999358,627.764227349,None,627.179716001,627.580738598,628.1472992739999,628.6475487280001,628.1472992739999,None,,,,,,5,001,exponential,bryg,0.35-0.75,2021_May_18_1042,color_judgement_and_subjective_perception,2020.2.10,60.06465852373194,
2,0.9,training,1000000000000,,0,26,26,26,,,,,,,,,,,,,,,,,629.2475631409999,None,k,0.3199555959999998,629.3475855549999,None,628.7475887489999,629.164241996,629.697608929,630.197968413,629.697608929,None,,,,,,5,001,exponential,bryg,0.35-0.75,2021_May_18_1042,color_judgement_and_subjective_perception,2020.2.10,60.06465852373194,
0,0.9,training,1000000000000,,0,27,27,27,,,,,,,,,,,,,,,,,630.7979655789999,None,d,0.5536487079998551,630.8979474839999,None,630.2978920869999,630.7145070580001,631.4811720270001,631.9812824669999,631.4811720270001,None,,,,,,5,001,exponential,bryg,0.35-0.75,2021_May_18_1042,color_judgement_and_subjective_perception,2020.2.10,60.06465852373194,
3,0.9,training,1000000000000,,0,28,28,28,,,,,,,,,,,,,,,,,632.565812361,None,k,0.45791465100001005,632.6656535799999,None,632.0814871419999,632.482185208,633.148836083,633.6491808520001,633.148836083,None,,,,,,5,001,exponential,bryg,0.35-0.75,2021_May_18_1042,color_judgement_and_subjective_perception,2020.2.10,60.06465852373194,
0,0.9,training,1000000000000,,0,29,29,29,,,,,,,,,,,,,,,,,634.2492337130001,None,f,0.326404643999922,634.349183681,None,633.748997687,634.165862556,634.699117062,635.1994400739999,634.699117062,None,,,,,,5,001,exponential,bryg,0.35-0.75,2021_May_18_1042,color_judgement_and_subjective_perception,2020.2.10,60.06465852373194,
2,0.9,training,1000000000000,,0,30,30,30,,,,,,,,,,,,,,,,,635.799544284,None,j,0.4801359790001243,635.8994253489999,None,635.2994721880001,635.7162176339999,636.399435833,636.899646959,636.399435833,None,,,,,,5,001,exponential,bryg,0.35-0.75,2021_May_18_1042,color_judgement_and_subjective_perception,2020.2.10,60.06465852373194,
1,0.9,training,1000000000000,,0,31,31,31,,,,,,,,,,,,,,,,,637.483723484,None,f,0.7797302540000146,637.583844209,None,636.9995548349999,637.400623758,638.383830028,638.8841385300001,638.383830028,None,,,,,,5,001,exponential,bryg,0.35-0.75,2021_May_18_1042,color_judgement_and_subjective_perception,2020.2.10,60.06465852373194,
2,0.9,training,1000,,,,,,0,0,0,0,,,,,,,,,,,,,646.5695447940001,None,j,0.5021694900001421,646.669407512,None,646.072158114,646.4861253569999,647.202660738,647.687075636,647.202660738,None,,,,,,5,001,exponential,bryg,0.35-0.75,2021_May_18_1042,color_judgement_and_subjective_perception,2020.2.10,60.06465852373194,
0,0.9,training,1000,,,,,,0,1,1,1,,,,,,,,,,,,,648.2870811490001,None,d,0.3363970400000653,648.3871595740001,None,647.786981521,648.2038600299999,648.7537001659999,649.2563752499999,648.7537001659999,None,,,,,,5,001,exponential,bryg,0.35-0.75,2021_May_18_1042,color_judgement_and_subjective_perception,2020.2.10,60.06465852373194,
3,0.9,training,1000,,,,,,0,2,2,2,,,,,,,,,,,,,649.8542294929999,None,k,0.5055109699999321,649.954058248,None,649.3539397979999,649.7709435139999,650.487438858,650.987433979,650.487438858,None,,,,,,5,001,exponential,bryg,0.35-0.75,2021_May_18_1042,color_judgement_and_subjective_perception,2020.2.10,60.06465852373194,
0,0.9,training,1000,,,,,,0,3,3,3,,,,,,,,,,,,,651.587707627,None,d,0.46792413100001795,651.6876877789999,None,651.087548649,651.5043058939999,652.187613422,652.6721075910001,652.187613422,None,,,,,,5,001,exponential,bryg,0.35-0.75,2021_May_18_1042,color_judgement_and_subjective_perception,2020.2.10,60.06465852373194,
3,0.9,training,1000,,,,,,0,4,4,4,,,,,,,,,,,,,653.272085167,None,k,0.46353388400007134,653.372055706,None,652.7719297770001,653.1886178589999,653.855359738,654.35555807,653.855359738,None,,,,,,5,001,exponential,bryg,0.35-0.75,2021_May_18_1042,color_judgement_and_subjective_perception,2020.2.10,60.06465852373194,
1,0.9,training,1000,,,,,,0,5,5,5,,,,,,,,,,,,,654.9556437729999,None,f,0.5639083359999404,655.055699032,None,654.4555225749999,654.872418368,655.639061447,656.139104386,655.639061447,None,,,,,,5,001,exponential,bryg,0.35-0.75,2021_May_18_1042,color_judgement_and_subjective_perception,2020.2.10,60.06465852373194,
3,0.9,training,1000,,,,,,0,6,6,6,,,,,,,,,,,,,656.739164208,None,k,0.42022858499990434,656.8393690050001,None,656.239246685,656.6558940799999,657.2891440059999,657.7736466329999,657.2891440059999,None,,,,,,5,001,exponential,bryg,0.35-0.75,2021_May_18_1042,color_judgement_and_subjective_perception,2020.2.10,60.06465852373194,
0,0.9,training,1000,,,,,,0,7,7,7,,,,,,,,,,,,,658.3736321800001,None,d,0.45787952699993184,658.4737059170001,None,657.873558009,658.290397479,658.9570716300001,659.457273916,658.9570716300001,None,,,,,,5,001,exponential,bryg,0.35-0.75,2021_May_18_1042,color_judgement_and_subjective_perception,2020.2.10,60.06465852373194,
2,0.9,training,1000,,,,,,0,8,8,8,,,,,,,,,,,,,660.0577414799999,None,j,0.2862471749999713,660.157353535,None,659.5571537249999,659.974117933,660.4739799160001,660.9740984639999,660.4739799160001,None,,,,,,5,001,exponential,bryg,0.35-0.75,2021_May_18_1042,color_judgement_and_subjective_perception,2020.2.10,60.06465852373194,
0,0.9,training,1000,,,,,,0,9,9,9,,,,,,,,,,,,,661.574061655,None,d,0.42536161799989713,661.67422032,None,661.0740823489999,661.490909906,662.1242308950001,662.608624656,662.1242308950001,None,,,,,,5,001,exponential,bryg,0.35-0.75,2021_May_18_1042,color_judgement_and_subjective_perception,2020.2.10,60.06465852373194,
3,0.9,training,1000,,,,,,0,10,10,10,,,,,,,,,,,,,663.2086074499999,None,k,0.3030145589998483,663.308552499,None,662.70843099,663.12526795,663.6418349479999,664.14213865,663.6418349479999,None,,,,,,5,001,exponential,bryg,0.35-0.75,2021_May_18_1042,color_judgement_and_subjective_perception,2020.2.10,60.06465852373194,
2,0.9,training,1000,,,,,,0,11,11,11,,,,,,,,,,,,,664.7423186069999,None,j,0.4256165140000121,664.841988044,None,664.242008137,664.65889723,665.2923552789999,665.792356113,665.2923552789999,None,,,,,,5,001,exponential,bryg,0.35-0.75,2021_May_18_1042,color_judgement_and_subjective_perception,2020.2.10,60.06465852373194,
1,0.9,training,1000,,,,,,0,12,12,12,,,,,,,,,,,,,666.3924168269999,None,f,0.3751031070000863,666.492479055,None,665.892294548,666.3090223739999,666.892394031,667.3767518220001,666.892394031,None,,,,,,5,001,exponential,bryg,0.35-0.75,2021_May_18_1042,color_judgement_and_subjective_perception,2020.2.10,60.06465852373194,
2,0.9,training,1000,,,,,,0,13,13,13,,,,,,,,,,,,,667.9769204559999,None,j,0.4387888369999473,668.0768208220001,None,667.4767744960001,667.893460081,668.543447336,669.0435780439999,668.543447336,None,,,,,,5,001,exponential,bryg,0.35-0.75,2021_May_18_1042,color_judgement_and_subjective_perception,2020.2.10,60.06465852373194,
1,0.9,training,1000,,,,,,0,14,14,14,,,,,,,,,,,,,669.6438239549999,None,f,0.42750128600005155,669.7439913300001,None,669.143566974,669.5604777719999,670.193713776,670.694133136,670.193713776,None,,,,,,5,001,exponential,bryg,0.35-0.75,2021_May_18_1042,color_judgement_and_subjective_perception,2020.2.10,60.06465852373194,
3,0.9,training,1000,,,,,,0,15,15,15,,,,,,,,,,,,,671.2940695860001,None,k,0.3454972549998274,671.3939964519999,None,670.793881107,671.2106790859999,671.760599914,672.2608018259999,671.760599914,None,,,,,,5,001,exponential,bryg,0.35-0.75,2021_May_18_1042,color_judgement_and_subjective_perception,2020.2.10,60.06465852373194,
2,0.9,training,1000,,,,,,0,16,16,16,,,,,,,,,,,,,672.8451982319999,None,j,0.33033390600007806,672.945239779,None,672.3537994499999,672.7618587119999,673.2950578649999,673.7951715830001,673.2950578649999,None,,,,,,5,001,exponential,bryg,0.35-0.75,2021_May_18_1042,color_judgement_and_subjective_perception,2020.2.10,60.06465852373194,
0,0.9,training,1000,,,,,,0,17,17,17,,,,,,,,,,,,,674.3952273839999,None,d,0.30017492699994364,674.495408786,None,673.8950780280001,674.3119184149999,674.8287077179999,675.328857204,674.8287077179999,None,,,,,,5,001,exponential,bryg,0.35-0.75,2021_May_18_1042,color_judgement_and_subjective_perception,2020.2.10,60.06465852373194,
1,0.9,training,1000,,,,,,0,18,18,18,,,,,,,,,,,,,675.9288283479999,None,j,0.44680233400004,676.028797691,None,675.4288561770001,675.8455338969999,676.4954461629999,676.9956769910001,676.4954461629999,None,,,,,,5,001,exponential,bryg,0.35-0.75,2021_May_18_1042,color_judgement_and_subjective_perception,2020.2.10,60.06465852373194,
0,0.9,training,1000,,,,,,0,19,19,19,,,,,,,,,,,,,677.579830454,None,d,0.5555533480001031,677.6800491590001,None,677.0956248649999,677.4965459890001,678.2631406490001,678.7634102620001,678.2631406490001,None,,,,,,5,001,exponential,bryg,0.35-0.75,2021_May_18_1042,color_judgement_and_subjective_perception,2020.2.10,60.06465852373194,
1,0.9,training,1000,,,,,,0,20,20,20,,,,,,,,,,,,,679.3635312,None,j,0.5720180509999864,679.4635912770001,None,678.863243675,679.2802197120001,680.0634232409999,680.563691426,680.0634232409999,None,,,,,,5,001,exponential,bryg,0.35-0.75,2021_May_18_1042,color_judgement_and_subjective_perception,2020.2.10,60.06465852373194,
2,0.9,training,1000,,,,,,0,21,21,21,,,,,,,,,,,,,681.163859618,None,j,0.4436584339998717,681.263920087,None,680.6635432699999,681.0805373889999,681.730310887,682.2307064539999,681.730310887,None,,,,,,5,001,exponential,bryg,0.35-0.75,2021_May_18_1042,color_judgement_and_subjective_perception,2020.2.10,60.06465852373194,
3,0.9,training,1000,,,,,,0,22,22,22,,,,,,,,,,,,,682.8149044339999,None,k,0.4567666390000795,682.9148033499999,None,682.330569292,682.731727347,683.398094154,683.898365662,683.398094154,None,,,,,,5,001,exponential,bryg,0.35-0.75,2021_May_18_1042,color_judgement_and_subjective_perception,2020.2.10,60.06465852373194,
1,0.9,training,1000,,,,,,0,23,23,23,,,,,,,,,,,,,684.4984286129999,None,f,0.5650117800000771,684.59857475,None,683.9983649090001,684.4151391669999,685.1819909479999,685.6820451479999,685.1819909479999,None,,,,,,5,001,exponential,bryg,0.35-0.75,2021_May_18_1042,color_judgement_and_subjective_perception,2020.2.10,60.06465852373194,
0,0.9,training,1000,,,,,,0,24,24,24,,,,,,,,,,,,,686.2819890499999,None,d,0.4776432809999278,686.3818888449999,None,685.781976245,686.1987865360001,686.882151985,687.3671042519999,686.882151985,None,,,,,,5,001,exponential,bryg,0.35-0.75,2021_May_18_1042,color_judgement_and_subjective_perception,2020.2.10,60.06465852373194,
3,0.9,training,1000,,,,,,0,25,25,25,,,,,,,,,,,,,687.966714257,None,k,0.5689914519998638,688.0665906840001,None,687.466541936,687.88319358,688.6665401680001,689.166805125,688.6665401680001,None,,,,,,5,001,exponential,bryg,0.35-0.75,2021_May_18_1042,color_judgement_and_subjective_perception,2020.2.10,60.06465852373194,
1,0.9,training,1000,,,,,,0,26,26,26,,,,,,,,,,,,,689.766809029,None,f,0.6247601840000243,689.8668283200001,None,689.2666820819999,689.683351925,690.5166258979999,691.016990923,690.5166258979999,None,,,,,,5,001,exponential,bryg,0.35-0.75,2021_May_18_1042,color_judgement_and_subjective_perception,2020.2.10,60.06465852373194,
2,0.9,training,1000,,,,,,0,27,27,27,,,,,,,,,,,,,691.617052119,None,j,0.558477443999891,691.717104903,None,691.116959971,691.5337471889999,692.300476323,692.784746249,692.300476323,None,,,,,,5,001,exponential,bryg,0.35-0.75,2021_May_18_1042,color_judgement_and_subjective_perception,2020.2.10,60.06465852373194,
0,0.9,training,1000,,,,,,0,28,28,28,,,,,,,,,,,,,693.3847828520001,None,d,0.6707280089999585,693.4848371510001,None,692.884829816,693.3013742219999,694.1847616389999,694.685229883,694.1847616389999,None,,,,,,5,001,exponential,bryg,0.35-0.75,2021_May_18_1042,color_judgement_and_subjective_perception,2020.2.10,60.06465852373194,
1,0.9,training,1000,,,,,,0,29,29,29,,,,,,,,,,,,,695.2851197619999,None,f,0.6024123009999585,695.3851390149999,None,694.785116401,695.201946387,696.018341221,696.5185516749999,696.018341221,None,,,,,,5,001,exponential,bryg,0.35-0.75,2021_May_18_1042,color_judgement_and_subjective_perception,2020.2.10,60.06465852373194,
2,0.9,training,1000,,,,,,0,30,30,30,,,,,,,,,,,,,697.1187604969999,None,j,0.4409420740000769,697.2186404820001,None,696.6186142370001,697.03535393,697.6862468539999,698.186266478,697.6862468539999,None,,,,,,5,001,exponential,bryg,0.35-0.75,2021_May_18_1042,color_judgement_and_subjective_perception,2020.2.10,60.06465852373194,
1,0.9,training,1000,,,,,,0,31,31,31,,,,,,,,,,,,,698.786453888,None,f,0.5250446210000064,698.88654895,None,698.2863238440001,698.70307646,699.4364617099999,699.9365024340001,699.4364617099999,None,,,,,,5,001,exponential,bryg,0.35-0.75,2021_May_18_1042,color_judgement_and_subjective_perception,2020.2.10,60.06465852373194,
3,0.9,training,1000,,,,,,0,32,32,32,,,,,,,,,,,,,700.536691954,None,k,0.4788170730000729,700.6367593219999,None,700.0367417680001,700.453269453,701.1366011240001,701.6369268990001,701.1366011240001,None,,,,,,5,001,exponential,bryg,0.35-0.75,2021_May_18_1042,color_judgement_and_subjective_perception,2020.2.10,60.06465852373194,
1,0.9,training,1000,,,,,,0,33,33,33,,,,,,,,,,,,,702.2370191260001,None,f,0.5306060610000713,702.336880258,None,701.736848376,702.153348594,702.887994972,703.387942839,702.887994972,None,,,,,,5,001,exponential,bryg,0.35-0.75,2021_May_18_1042,color_judgement_and_subjective_perception,2020.2.10,60.06465852373194,
0,0.9,training,1000,,,,,,0,34,34,34,,,,,,,,,,,,,703.9879946079999,None,d,0.40362255300010474,704.0879812679999,None,703.4879053579999,703.904793343,704.521372151,705.021696231,704.521372151,None,,,,,,5,001,exponential,bryg,0.35-0.75,2021_May_18_1042,color_judgement_and_subjective_perception,2020.2.10,60.06465852373194,
2,0.9,training,1000,,,,,,0,35,35,35,,,,,,,,,,,,,705.621689127,None,j,0.38595635499996206,705.721635992,None,705.1217430380001,705.5383704249999,706.138178522,706.6384733040001,706.138178522,None,,,,,,5,001,exponential,bryg,0.35-0.75,2021_May_18_1042,color_judgement_and_subjective_perception,2020.2.10,60.06465852373194,
3,0.9,training,1000,,,,,,0,36,36,36,,,,,,,,,,,,,707.23859867,None,k,0.6091363240000192,707.338463729,None,706.7386077770001,707.1551947930001,707.972722397,708.472927977,707.972722397,None,,,,,,5,001,exponential,bryg,0.35-0.75,2021_May_18_1042,color_judgement_and_subjective_perception,2020.2.10,60.06465852373194,
0,0.9,training,1000,,,,,,0,37,37,37,,,,,,,,,,,,,709.0728093859999,None,d,0.502484319000132,709.173061475,None,708.572848849,708.989611331,709.706392076,710.2064722619999,709.706392076,None,,,,,,5,001,exponential,bryg,0.35-0.75,2021_May_18_1042,color_judgement_and_subjective_perception,2020.2.10,60.06465852373194,
3,0.9,training,1000,,,,,,0,38,38,38,,,,,,,,,,,,,710.8066075190001,None,k,0.5291235199999846,710.906464497,None,710.306645003,710.723115919,711.456490897,711.9568578269999,711.456490897,None,,,,,,5,001,exponential,bryg,0.35-0.75,2021_May_18_1042,color_judgement_and_subjective_perception,2020.2.10,60.06465852373194,
1,0.9,training,1000,,,,,,0,39,39,39,,,,,,,,,,,,,712.5409858209999,None,f,0.6585289409999859,712.641059551,None,712.0567842009999,712.4577022980001,713.324367525,713.824442474,713.324367525,None,,,,,,5,001,exponential,bryg,0.35-0.75,2021_May_18_1042,color_judgement_and_subjective_perception,2020.2.10,60.06465852373194,
3,0.9,training,1000,,,,,,0,40,40,40,,,,,,,,,,,,,714.424699178,None,k,0.5668136560000221,714.5247507779999,None,713.9244603640001,714.341359034,715.10804221,715.6081893029999,715.10804221,None,,,,,,5,001,exponential,bryg,0.35-0.75,2021_May_18_1042,color_judgement_and_subjective_perception,2020.2.10,60.06465852373194,
2,0.9,training,1000,,,,,,0,41,41,41,,,,,,,,,,,,,716.2082555119999,None,j,0.30317765900008453,716.308413867,None,715.708054094,716.124927533,716.6415977830001,717.141678005,716.6415977830001,None,,,,,,5,001,exponential,bryg,0.35-0.75,2021_May_18_1042,color_judgement_and_subjective_perception,2020.2.10,60.06465852373194,
0,0.9,training,1000,,,,,,0,42,42,42,,,,,,,,,,,,,717.726125416,None,d,0.3855248059999212,717.826058346,None,717.241691861,717.6426232939999,718.242578084,718.742817428,718.242578084,None,,,,,,5,001,exponential,bryg,0.35-0.75,2021_May_18_1042,color_judgement_and_subjective_perception,2020.2.10,60.06465852373194,
1,0.9,training,1000,,,,,,0,43,43,43,,,,,,,,,,,,,719.3428908960001,None,f,0.40876497599992945,719.442837687,None,718.842815675,719.2596433329999,719.8762629260001,720.3763997499999,719.8762629260001,None,,,,,,5,001,exponential,bryg,0.35-0.75,2021_May_18_1042,color_judgement_and_subjective_perception,2020.2.10,60.06465852373194,
2,0.9,training,1000,,,,,,0,44,44,44,,,,,,,,,,,,,720.9764243829999,None,j,0.35091992899992874,721.0766852309999,None,720.4763894920001,720.893062281,721.459708664,721.9599161130001,721.459708664,None,,,,,,5,001,exponential,bryg,0.35-0.75,2021_May_18_1042,color_judgement_and_subjective_perception,2020.2.10,60.06465852373194,
3,0.9,training,1000,,,,,,0,45,45,45,,,,,,,,,,,,,722.544292787,None,k,0.231463574999907,722.644134801,None,722.0598880809999,722.4608468289999,722.894326878,723.394344444,722.894326878,None,,,,,,5,001,exponential,bryg,0.35-0.75,2021_May_18_1042,color_judgement_and_subjective_perception,2020.2.10,60.06465852373194,
0,0.9,training,1000,,,,,,0,46,46,46,,,,,,,,,,,,,723.994419019,None,d,0.37313282800005254,724.09444896,None,723.494325339,723.910999949,724.4944240799999,724.994580655,724.4944240799999,None,,,,,,5,001,exponential,bryg,0.35-0.75,2021_May_18_1042,color_judgement_and_subjective_perception,2020.2.10,60.06465852373194,
2,0.9,training,1000,,,,,,0,47,47,47,,,,,,,,,,,,,725.594614296,None,j,0.3087930429999233,725.694787735,None,725.0946516790001,725.511262806,726.027961028,726.528098461,726.027961028,None,,,,,,5,001,exponential,bryg,0.35-0.75,2021_May_18_1042,color_judgement_and_subjective_perception,2020.2.10,60.06465852373194,
2,0.9,training,1000,,,,,,0,48,48,48,,,,,,,,,,,,,727.128272324,None,j,0.6313858080000045,727.228201802,None,726.628097615,727.044931731,727.8791010219999,728.379208467,727.8791010219999,None,,,,,,5,001,exponential,bryg,0.35-0.75,2021_May_18_1042,color_judgement_and_subjective_perception,2020.2.10,60.06465852373194,
1,0.9,training,1000,,,,,,0,49,49,49,,,,,,,,,,,,,728.9792449779999,None,f,0.7643057779998799,729.0792855440001,None,728.4791524030001,728.8960734619999,729.8627584729999,730.3629830809999,729.8627584729999,None,,,,,,5,001,exponential,bryg,0.35-0.75,2021_May_18_1042,color_judgement_and_subjective_perception,2020.2.10,60.06465852373194,
3,0.9,training,1000,,,,,,0,50,50,50,,,,,,,,,,,,,730.9629665419999,None,k,0.436602073000131,731.0629996920001,None,730.462705328,730.8795362709999,731.529530768,732.0299200759999,731.529530768,None,,,,,,5,001,exponential,bryg,0.35-0.75,2021_May_18_1042,color_judgement_and_subjective_perception,2020.2.10,60.06465852373194,
1,0.9,training,1000,,,,,,0,51,51,51,,,,,,,,,,,,,732.6142257370001,None,f,0.7294731550000506,732.714107829,None,732.129872551,732.5308023439999,733.4639265879999,733.964211955,733.4639265879999,None,,,,,,5,001,exponential,bryg,0.35-0.75,2021_May_18_1042,color_judgement_and_subjective_perception,2020.2.10,60.06465852373194,
0,0.9,training,1000,,,,,,0,52,52,52,,,,,,,,,,,,,734.564443831,None,d,0.5151863190001222,734.6643885540001,None,734.06417641,734.481023769,735.1978291920001,735.6979850460001,735.1978291920001,None,,,,,,5,001,exponential,bryg,0.35-0.75,2021_May_18_1042,color_judgement_and_subjective_perception,2020.2.10,60.06465852373194,
1,0.9,training,1000,,,,,,0,53,53,53,,,,,,,,,,,,,736.2980611229999,None,f,0.4617454090000592,736.3978424000001,None,735.7979129219999,736.2146934419999,736.8813350270001,737.372774633,736.8813350270001,None,,,,,,5,001,exponential,bryg,0.35-0.75,2021_May_18_1042,color_judgement_and_subjective_perception,2020.2.10,60.06465852373194,
1,0.9,training,1000,,,,,,0,54,54,54,,,,,,,,,,,,,737.965734175,None,f,0.5458501099999467,738.065719717,None,737.4656884719999,737.882425374,738.6322767989999,739.1326709419999,738.6322767989999,None,,,,,,5,001,exponential,bryg,0.35-0.75,2021_May_18_1042,color_judgement_and_subjective_perception,2020.2.10,60.06465852373194,
3,0.9,training,1000,,,,,,0,55,55,55,,,,,,,,,,,,,739.7327909720001,None,k,0.4666986249999354,739.832772609,None,739.23235111,739.649358627,740.3326732029999,740.83281058,740.3326732029999,None,,,,,,5,001,exponential,bryg,0.35-0.75,2021_May_18_1042,color_judgement_and_subjective_perception,2020.2.10,60.06465852373194,
0,0.9,training,1000,,,,,,0,56,56,56,,,,,,,,,,,,,741.432795118,None,d,0.3586571399998775,741.532931712,None,740.9327921959999,741.349512424,741.916229891,742.4007192329999,741.916229891,None,,,,,,5,001,exponential,bryg,0.35-0.75,2021_May_18_1042,color_judgement_and_subjective_perception,2020.2.10,60.06465852373194,
1,0.9,training,1000,,,,,,0,57,57,57,,,,,,,,,,,,,743.0007058529999,None,f,0.42286962299999686,743.100712327,None,742.5005262020001,742.9171372469999,743.550544498,744.0507096309999,743.550544498,None,,,,,,5,001,exponential,bryg,0.35-0.75,2021_May_18_1042,color_judgement_and_subjective_perception,2020.2.10,60.06465852373194,
2,0.9,training,1000,,,,,,0,58,58,58,,,,,,,,,,,,,744.6508558710001,None,j,0.27664623200007554,744.750976553,None,744.1507269299999,744.5676090779999,745.0509704929999,745.551083142,745.0509704929999,None,,,,,,5,001,exponential,bryg,0.35-0.75,2021_May_18_1042,color_judgement_and_subjective_perception,2020.2.10,60.06465852373194,
0,0.9,training,1000,,,,,,0,59,59,59,,,,,,,,,,,,,746.1510863130001,None,d,0.3765044050001052,746.2510763439999,None,745.6508605390001,746.0677218719999,746.6510832559999,747.151221487,746.6510832559999,None,,,,,,5,001,exponential,bryg,0.35-0.75,2021_May_18_1042,color_judgement_and_subjective_perception,2020.2.10,60.06465852373194,
2,0.9,training,1000,,,,,,0,60,60,60,,,,,,,,,,,,,747.735587861,None,j,0.32022812099990006,747.8353760480001,None,747.2511732629999,747.6520052689999,748.185505966,748.6855917280001,748.185505966,None,,,,,,5,001,exponential,bryg,0.35-0.75,2021_May_18_1042,color_judgement_and_subjective_perception,2020.2.10,60.06465852373194,
3,0.9,training,1000,,,,,,0,61,61,61,,,,,,,,,,,,,749.285729412,None,k,0.45785285100009787,749.385751359,None,748.7856289119999,749.202560608,749.869040655,750.3692275299999,749.869040655,None,,,,,,5,001,exponential,bryg,0.35-0.75,2021_May_18_1042,color_judgement_and_subjective_perception,2020.2.10,60.06465852373194,
1,0.9,training,1000,,,,,,0,62,62,62,,,,,,,,,,,,,750.9693013689999,None,f,0.35833068800002366,751.069275334,None,750.4691984320001,750.886059372,751.452509759,751.952890333,751.452509759,None,,,,,,5,001,exponential,bryg,0.35-0.75,2021_May_18_1042,color_judgement_and_subjective_perception,2020.2.10,60.06465852373194,
3,0.9,training,1000,,,,,,0,63,63,63,,,,,,,,,,,,,752.537089026,None,k,0.3985706130001745,752.637035392,None,752.0528242029999,752.453792763,753.053695509,753.5537976649999,753.053695509,None,,,,,,5,001,exponential,bryg,0.35-0.75,2021_May_18_1042,color_judgement_and_subjective_perception,2020.2.10,60.06465852373194,
3,0.9,training,1000,,,,,,0,64,64,64,,,,,,,,,,,,,754.1539839850001,None,k,0.3016141279999829,754.253995402,None,753.6537876870001,754.070596505,754.5872906819999,755.0875117889999,754.5872906819999,None,,,,,,5,001,exponential,bryg,0.35-0.75,2021_May_18_1042,color_judgement_and_subjective_perception,2020.2.10,60.06465852373194,
1,0.9,training,1000,,,,,,0,65,65,65,,,,,,,,,,,,,755.6875121439999,None,k,0.39210463400013396,755.787500455,None,755.1874225810001,755.604183524,756.203973154,756.704377998,756.203973154,None,,,,,,5,001,exponential,bryg,0.35-0.75,2021_May_18_1042,color_judgement_and_subjective_perception,2020.2.10,60.06465852373194,
2,0.9,training,1000,,,,,,0,66,66,66,,,,,,,,,,,,,757.3044637849999,None,j,0.4782808400000249,757.389345677,None,756.804453306,757.221080229,757.888527277,758.388719126,757.888527277,None,,,,,,5,001,exponential,bryg,0.35-0.75,2021_May_18_1042,color_judgement_and_subjective_perception,2020.2.10,60.06465852373194,
1,0.9,training,1000,,,,,,0,67,67,67,,,,,,,,,,,,,758.9888104769999,None,f,0.41870715900017785,759.0888935909999,None,758.4886759729999,758.9055942260001,759.538844839,760.0391079289999,759.538844839,None,,,,,,5,001,exponential,bryg,0.35-0.75,2021_May_18_1042,color_judgement_and_subjective_perception,2020.2.10,60.06465852373194,
3,0.9,training,1000,,,,,,0,68,68,68,,,,,,,,,,,,,760.6390729189999,None,k,0.6405271319999883,760.739058648,None,760.1391346889999,760.555692518,761.405834089,761.905971906,761.405834089,None,,,,,,5,001,exponential,bryg,0.35-0.75,2021_May_18_1042,color_judgement_and_subjective_perception,2020.2.10,60.06465852373194,
0,0.9,training,1000,,,,,,0,69,69,69,,,,,,,,,,,,,762.4904241369999,None,d,0.3012779559999217,762.590321085,None,762.0059815179999,762.406913898,762.923371602,763.423554074,762.923371602,None,,,,,,5,001,exponential,bryg,0.35-0.75,2021_May_18_1042,color_judgement_and_subjective_perception,2020.2.10,60.06465852373194,
0,0.9,training,1000,,,,,,0,70,70,70,,,,,,,,,,,,,764.0264126190001,None,d,0.5276251269999648,764.1238526210001,None,763.5235996769999,763.9404430230001,764.673862132,765.174064084,764.673862132,None,,,,,,5,001,exponential,bryg,0.35-0.75,2021_May_18_1042,color_judgement_and_subjective_perception,2020.2.10,60.06465852373194,
2,0.9,training,1000,,,,,,0,71,71,71,,,,,,,,,,,,,765.77403571,None,j,0.3454371110001375,765.874040567,None,765.27395898,765.690645406,766.240618958,766.7409276469999,766.240618958,None,,,,,,5,001,exponential,bryg,0.35-0.75,2021_May_18_1042,color_judgement_and_subjective_perception,2020.2.10,60.06465852373194,
3,0.9,training,1000,,,,,,0,72,72,72,,,,,,,,,,,,,767.3408920210001,None,k,0.3063823700001649,767.425218402,None,766.8409145479999,767.257676354,767.7584016919999,768.258564118,767.7584016919999,None,,,,,,5,001,exponential,bryg,0.35-0.75,2021_May_18_1042,color_judgement_and_subjective_perception,2020.2.10,60.06465852373194,
0,0.9,training,1000,,,,,,0,73,73,73,,,,,,,,,,,,,768.8586169710001,None,d,0.5488837870000225,768.958701976,None,768.358601905,768.77521564,769.5253716880001,770.025514924,769.5253716880001,None,,,,,,5,001,exponential,bryg,0.35-0.75,2021_May_18_1042,color_judgement_and_subjective_perception,2020.2.10,60.06465852373194,
2,0.9,training,1000,,,,,,0,74,74,74,,,,,,,,,,,,,770.6255358489999,None,j,0.4219889720000083,770.72559719,None,770.1255984769999,770.5424200020001,771.175432823,771.675858341,771.175432823,None,,,,,,5,001,exponential,bryg,0.35-0.75,2021_May_18_1042,color_judgement_and_subjective_perception,2020.2.10,60.06465852373194,
2,0.9,training,1000,,,,,,0,75,75,75,,,,,,,,,,,,,772.2759354839999,None,j,0.41314151699998547,772.3743581120001,None,771.7757877380001,772.192551619,772.810029482,773.3102218160001,772.810029482,None,,,,,,5,001,exponential,bryg,0.35-0.75,2021_May_18_1042,color_judgement_and_subjective_perception,2020.2.10,60.06465852373194,
1,0.9,training,1000,,,,,,0,76,76,76,,,,,,,,,,,,,773.910287245,None,k,0.3372455030000765,774.0103528389999,None,773.410093905,773.826930753,774.376836106,774.8772322409999,774.376836106,None,,,,,,5,001,exponential,bryg,0.35-0.75,2021_May_18_1042,color_judgement_and_subjective_perception,2020.2.10,60.06465852373194,
1,0.9,training,1000,,,,,,0,77,77,77,,,,,,,,,,,,,775.4771377190001,None,f,0.4983893999999509,775.577196803,None,774.977229516,775.393820571,776.0938249269999,776.5939829150001,776.0938249269999,None,,,,,,5,001,exponential,bryg,0.35-0.75,2021_May_18_1042,color_judgement_and_subjective_perception,2020.2.10,60.06465852373194,
3,0.9,training,1000,,,,,,0,78,78,78,,,,,,,,,,,,,777.1941241789999,None,k,0.6293756839997968,777.294260861,None,776.6940402189999,777.110772114,777.944978486,778.4449365029999,777.944978486,None,,,,,,5,001,exponential,bryg,0.35-0.75,2021_May_18_1042,color_judgement_and_subjective_perception,2020.2.10,60.06465852373194,
0,0.9,training,1000,,,,,,0,79,79,79,,,,,,,,,,,,,779.0451418240001,None,d,0.38640809900016393,779.145181813,None,778.545071656,778.961815688,779.5619705969999,780.061952653,779.5619705969999,None,,,,,,5,001,exponential,bryg,0.35-0.75,2021_May_18_1042,color_judgement_and_subjective_perception,2020.2.10,60.06465852373194,
0,0.9,training,1000,,,,,,0,80,80,80,,,,,,,,,,,,,780.662252321,None,d,0.36949953199996344,780.7620762299999,None,780.162062864,780.5787999789999,781.1620197359999,781.662327055,781.1620197359999,None,,,,,,5,001,exponential,bryg,0.35-0.75,2021_May_18_1042,color_judgement_and_subjective_perception,2020.2.10,60.06465852373194,
2,0.9,training,1000,,,,,,0,81,81,81,,,,,,,,,,,,,782.262364709,None,j,0.4492346510000971,782.36235069,None,781.762273723,782.179076319,782.830028788,783.3300786650001,782.830028788,None,,,,,,5,001,exponential,bryg,0.35-0.75,2021_May_18_1042,color_judgement_and_subjective_perception,2020.2.10,60.06465852373194,
2,0.9,training,1000,,,,,,0,82,82,82,,,,,,,,,,,,,783.930072284,None,j,0.325462226000127,784.0301126630001,None,783.429983782,783.846668775,784.380071249,784.880468315,784.380071249,None,,,,,,5,001,exponential,bryg,0.35-0.75,2021_May_18_1042,color_judgement_and_subjective_perception,2020.2.10,60.06465852373194,
2,0.9,training,1000,,,,,,0,83,83,83,,,,,,,,,,,,,785.480260594,None,j,0.2872448830000849,785.580337212,None,784.980422122,785.3971120580001,785.8969159039999,786.3970883430001,785.8969159039999,None,,,,,,5,001,exponential,bryg,0.35-0.75,2021_May_18_1042,color_judgement_and_subjective_perception,2020.2.10,60.06465852373194,
2,0.9,training,1000,,,,,,0,84,84,84,,,,,,,,,,,,,786.9973090079999,None,j,0.3863396259998808,787.0972319829999,None,786.4971510009999,786.9140644749999,787.5147084859999,788.0149896270001,787.5147084859999,None,,,,,,5,001,exponential,bryg,0.35-0.75,2021_May_18_1042,color_judgement_and_subjective_perception,2020.2.10,60.06465852373194,
0,0.9,training,1000,,,,,,0,85,85,85,,,,,,,,,,,,,788.6149120050001,None,d,0.4485953040000368,788.71500069,None,788.114930459,788.5317174170001,789.181493293,789.6819795499999,789.181493293,None,,,,,,5,001,exponential,bryg,0.35-0.75,2021_May_18_1042,color_judgement_and_subjective_perception,2020.2.10,60.06465852373194,
2,0.9,training,1000,,,,,,0,86,86,86,,,,,,,,,,,,,790.281996301,None,j,0.3975289959998918,790.3820631299999,None,789.78185965,790.1987168449999,790.7986003100001,791.2987071209999,790.7986003100001,None,,,,,,5,001,exponential,bryg,0.35-0.75,2021_May_18_1042,color_judgement_and_subjective_perception,2020.2.10,60.06465852373194,
3,0.9,training,1000,,,,,,0,87,87,87,,,,,,,,,,,,,791.89883056,None,k,0.5886635910001132,791.9989032679999,None,791.3988404579999,791.815542642,792.616353951,793.116396923,792.616353951,None,,,,,,5,001,exponential,bryg,0.35-0.75,2021_May_18_1042,color_judgement_and_subjective_perception,2020.2.10,60.06465852373194,
3,0.9,training,1000,,,,,,0,88,88,88,,,,,,,,,,,,,793.7165908200001,None,k,0.4431538300000284,793.816468873,None,793.2163981360001,793.6332332559999,794.2832476330001,794.783458499,794.2832476330001,None,,,,,,5,001,exponential,bryg,0.35-0.75,2021_May_18_1042,color_judgement_and_subjective_perception,2020.2.10,60.06465852373194,
3,0.9,training,1000,,,,,,0,89,89,89,,,,,,,,,,,,,795.3835000810001,None,k,0.35215170200012835,795.483461252,None,794.8835142270001,795.3002752609999,795.8667986940001,796.367058364,795.8667986940001,None,,,,,,5,001,exponential,bryg,0.35-0.75,2021_May_18_1042,color_judgement_and_subjective_perception,2020.2.10,60.06465852373194,
1,0.9,training,1000,,,,,,0,90,90,90,,,,,,,,,,,,,796.9671489440001,None,f,0.3444318589999966,797.0671458119999,None,796.4670275100001,796.883700015,797.434628614,797.9348287710001,797.434628614,None,,,,,,5,001,exponential,bryg,0.35-0.75,2021_May_18_1042,color_judgement_and_subjective_perception,2020.2.10,60.06465852373194,
3,0.9,training,1000,,,,,,0,91,91,91,,,,,,,,,,,,,798.5347880769999,None,j,0.472727925000072,798.634870509,None,798.034771495,798.4514068340001,799.134771995,799.634997644,799.134771995,None,,,,,,5,001,exponential,bryg,0.35-0.75,2021_May_18_1042,color_judgement_and_subjective_perception,2020.2.10,60.06465852373194,
1,0.9,training,1000,,,,,,0,92,92,92,,,,,,,,,,,,,800.235202017,None,f,0.6443631889999324,800.3351360820001,None,799.7351273190001,800.1518436130001,801.0017355859999,801.5018844479999,801.0017355859999,None,,,,,,5,001,exponential,bryg,0.35-0.75,2021_May_18_1042,color_judgement_and_subjective_perception,2020.2.10,60.06465852373194,
0,0.9,training,1000,,,,,,0,93,93,93,,,,,,,,,,,,,802.1019889559999,None,d,0.4575515690000884,802.2020309389999,None,801.60192126,802.018732314,802.686119693,803.1863306199999,802.686119693,None,,,,,,5,001,exponential,bryg,0.35-0.75,2021_May_18_1042,color_judgement_and_subjective_perception,2020.2.10,60.06465852373194,
0,0.9,training,1000,,,,,,0,94,94,94,,,,,,,,,,,,,803.786443776,None,d,0.48507148299995606,803.886492835,None,803.286259657,803.7030014149999,804.4030340820001,804.9032889690001,804.4030340820001,None,,,,,,5,001,exponential,bryg,0.35-0.75,2021_May_18_1042,color_judgement_and_subjective_perception,2020.2.10,60.06465852373194,
0,0.9,training,1000,,,,,,0,95,95,95,,,,,,,,,,,,,805.5033816480001,None,d,0.35227895699995315,805.6033175700001,None,805.0033453550001,805.419815867,805.9865946389999,806.486907353,805.9865946389999,None,,,,,,5,001,exponential,bryg,0.35-0.75,2021_May_18_1042,color_judgement_and_subjective_perception,2020.2.10,60.06465852373194,
0,0.35,testing,1000,1,,,,,,,,,0,0,0,0,0,0,0,0,,,,,814.4896711790001,None,d,0.7578927019999355,814.589696145,None,813.9935643360001,814.4064442759999,815.373174298,815.8733552939999,815.373174298,None,0,0,27,,,5,001,exponential,bryg,0.35-0.75,2021_May_18_1042,color_judgement_and_subjective_perception,2020.2.10,60.06465852373194,
1,0.35,testing,1000,1,,,,,,,,,0,0,0,0,0,1,1,1,,,,,816.473310726,None,d,0.4461059729999306,816.573487107,None,815.972987477,816.3900859920001,817.039956579,817.524472015,817.039956579,None,22,7,0,,,5,001,exponential,bryg,0.35-0.75,2021_May_18_1042,color_judgement_and_subjective_perception,2020.2.10,60.06465852373194,
3,0.35,testing,1000,1,,,,,,,,,0,0,0,0,0,2,2,3,,,,,818.1245124620001,None,d,0.3472121709999101,818.2243811960001,None,817.624446805,818.0411738459999,818.59100796,819.0911655849999,818.59100796,None,0,37,0,,,5,001,exponential,bryg,0.35-0.75,2021_May_18_1042,color_judgement_and_subjective_perception,2020.2.10,60.06465852373194,
2,0.35,testing,1000,1,,,,,,,,,0,0,0,0,0,3,3,2,,,,,819.691311256,None,d,0.29998429499983104,819.7915589099999,None,819.191228953,819.607982332,820.108104324,820.608254676,820.108104324,None,22,22,0,,,5,001,exponential,bryg,0.35-0.75,2021_May_18_1042,color_judgement_and_subjective_perception,2020.2.10,60.06465852373194,
1,0.35,testing,1000,1,,,,,,,,,0,0,0,0,1,0,4,1,,,,,821.208224481,None,None,-1,821.308317202,None,820.708237551,821.124870854,822.2248958060001,822.70926202,822.2248958060001,None,26,9,0,,,5,001,exponential,bryg,0.35-0.75,2021_May_18_1042,color_judgement_and_subjective_perception,2020.2.10,60.06465852373194,
3,0.35,testing,1000,1,,,,,,,,,0,0,0,0,1,1,5,3,,,,,823.3093756019999,None,None,-1,823.40947341,None,822.8091218799999,823.2260826160001,824.3261319310001,824.8262707499999,824.3261319310001,None,0,41,0,,,5,001,exponential,bryg,0.35-0.75,2021_May_18_1042,color_judgement_and_subjective_perception,2020.2.10,60.06465852373194,
0,0.35,testing,1000,1,,,,,,,,,0,0,0,0,1,2,6,0,,,,,825.426406596,None,f,0.4211888679999447,825.52642142,None,824.9262621849999,825.3430946249999,825.9762232730001,826.4766434,825.9762232730001,None,0,0,30,,,5,001,exponential,bryg,0.35-0.75,2021_May_18_1042,color_judgement_and_subjective_perception,2020.2.10,60.06465852373194,
2,0.35,testing,1000,1,,,,,,,,,0,0,0,0,1,3,7,2,,,,,827.076741662,None,j,0.7469482480000806,827.176644753,None,826.5765494149999,826.9933068070001,827.9441956019999,828.4443041769999,827.9441956019999,None,27,27,0,,,5,001,exponential,bryg,0.35-0.75,2021_May_18_1042,color_judgement_and_subjective_perception,2020.2.10,60.06465852373194,
0,0.35,testing,1000,1,,,,,,,,,0,0,0,0,2,0,8,0,,,,,829.0442751869999,None,None,-1,829.1444329990001,None,828.544265504,828.9611074620001,830.0609841280001,830.5613244,830.0609841280001,None,0,0,33,,,5,001,exponential,bryg,0.35-0.75,2021_May_18_1042,color_judgement_and_subjective_perception,2020.2.10,60.06465852373194,
2,0.35,testing,1000,1,,,,,,,,,0,0,0,0,2,1,9,2,,,,,831.161459539,None,j,0.6222837689999778,831.2613031950001,None,830.661220582,831.078200863,831.9113560229999,832.4029448160001,831.9113560229999,None,30,30,0,,,5,001,exponential,bryg,0.35-0.75,2021_May_18_1042,color_judgement_and_subjective_perception,2020.2.10,60.06465852373194,
3,0.35,testing,1000,1,,,,,,,,,0,0,0,0,2,2,10,3,,,,,832.995939067,None,d,0.7319271540000045,833.0956707219999,None,832.495740041,832.9126090440001,833.845759938,834.346129271,833.845759938,None,0,45,0,,,5,001,exponential,bryg,0.35-0.75,2021_May_18_1042,color_judgement_and_subjective_perception,2020.2.10,60.06465852373194,
1,0.35,testing,1000,1,,,,,,,,,0,0,0,0,2,3,11,1,,,,,834.946062509,None,j,0.5012106500000755,835.0463756989999,None,834.44607315,834.862997504,835.579387695,836.079616328,835.579387695,None,32,11,0,,,5,001,exponential,bryg,0.35-0.75,2021_May_18_1042,color_judgement_and_subjective_perception,2020.2.10,60.06465852373194,
2,0.35,testing,1000,1,,,,,,,,,0,0,0,0,3,0,12,2,,,,,836.679617544,None,f,0.2718562780000866,836.7797421629999,None,836.1795391449999,836.5964879279999,837.0797390639999,837.5640166709999,837.0797390639999,None,30,30,0,,,5,001,exponential,bryg,0.35-0.75,2021_May_18_1042,color_judgement_and_subjective_perception,2020.2.10,60.06465852373194,
1,0.35,testing,1000,1,,,,,,,,,0,0,0,0,3,1,13,1,,,,,838.1641473569999,None,k,0.6436694629999238,838.263931159,None,837.6639744549999,838.080620758,838.9306613350001,839.4310352829999,838.9306613350001,None,35,12,0,,,5,001,exponential,bryg,0.35-0.75,2021_May_18_1042,color_judgement_and_subjective_perception,2020.2.10,60.06465852373194,
3,0.35,testing,1000,1,,,,,,,,,0,0,0,0,3,2,14,3,,,,,840.0311906200001,None,j,0.35242277800011834,840.1311455399999,None,839.531009056,839.9477618709999,840.5144088149999,841.0145299059999,840.5144088149999,None,0,50,0,,,5,001,exponential,bryg,0.35-0.75,2021_May_18_1042,color_judgement_and_subjective_perception,2020.2.10,60.06465852373194,
0,0.35,testing,1000,1,,,,,,,,,0,0,0,0,3,3,15,0,,,,,841.61462991,None,None,-1,841.7147159499999,None,841.1144277049999,841.5313574759999,842.615386585,843.115635728,842.615386585,None,0,0,39,,,5,001,exponential,bryg,0.35-0.75,2021_May_18_1042,color_judgement_and_subjective_perception,2020.2.10,60.06465852373194,
1,0.35,testing,1000,1,,,,,,,,,0,0,0,0,4,0,16,1,,,,,843.7157517859999,None,f,0.3958290739999484,843.8157652819999,None,843.2155858689999,843.632459582,844.2323536160001,844.732678895,844.2323536160001,None,39,13,0,,,5,001,exponential,bryg,0.35-0.75,2021_May_18_1042,color_judgement_and_subjective_perception,2020.2.10,60.06465852373194,
2,0.35,testing,1000,1,,,,,,,,,0,0,0,0,4,1,17,2,,,,,845.3327574829999,None,None,-1,845.4328365810001,None,844.83254243,845.2495598720001,846.3492959890001,846.849702637,846.3492959890001,None,34,34,0,,,5,001,exponential,bryg,0.35-0.75,2021_May_18_1042,color_judgement_and_subjective_perception,2020.2.10,60.06465852373194,
0,0.35,testing,1000,1,,,,,,,,,0,0,0,0,4,2,18,0,,,,,847.4339928799999,None,None,-1,847.53402079,None,846.949408689,847.3662795839999,848.450479755,848.95084072,848.450479755,None,0,0,43,,,5,001,exponential,bryg,0.35-0.75,2021_May_18_1042,color_judgement_and_subjective_perception,2020.2.10,60.06465852373194,
3,0.35,testing,1000,1,,,,,,,,,0,0,0,0,4,3,19,3,,,,,849.550942556,None,None,-1,849.65096899,None,849.0506718319999,849.4674420939999,850.5675342420001,851.0678552109999,850.5675342420001,None,0,56,0,,,5,001,exponential,bryg,0.35-0.75,2021_May_18_1042,color_judgement_and_subjective_perception,2020.2.10,60.06465852373194,
0,0.35,testing,1000,1,,,,,,,,,0,0,0,0,5,0,20,0,,,,,851.667734987,None,None,-1,851.767831921,None,851.1676165499999,851.584662056,852.66867401,853.168751301,852.66867401,None,0,0,46,,,5,001,exponential,bryg,0.35-0.75,2021_May_18_1042,color_judgement_and_subjective_perception,2020.2.10,60.06465852373194,
2,0.35,testing,1000,1,,,,,,,,,0,0,0,0,5,1,21,2,,,,,853.7689459679999,None,None,-1,853.8689250609999,None,853.268759815,853.685554816,854.7856349550001,855.286079636,854.7856349550001,None,39,39,0,,,5,001,exponential,bryg,0.35-0.75,2021_May_18_1042,color_judgement_and_subjective_perception,2020.2.10,60.06465852373194,
3,0.35,testing,1000,1,,,,,,,,,0,0,0,0,5,2,22,3,,,,,855.8859747140001,None,None,-1,855.9860028919999,None,855.3859220119999,855.802510936,856.902685659,857.40153793,856.902685659,None,0,60,0,,,5,001,exponential,bryg,0.35-0.75,2021_May_18_1042,color_judgement_and_subjective_perception,2020.2.10,60.06465852373194,
1,0.35,testing,1000,1,,,,,,,,,0,0,0,0,5,3,23,1,,,,,857.9870802080001,None,None,-1,858.087088179,None,857.4870083289999,857.903833513,859.003741329,859.5039915599999,859.003741329,None,47,16,0,,,5,001,exponential,bryg,0.35-0.75,2021_May_18_1042,color_judgement_and_subjective_perception,2020.2.10,60.06465852373194,
1,0.35,testing,1000,1,,,,,,,,,0,0,0,0,6,0,24,1,,,,,860.104206701,None,d,0.4953061879998586,860.2042389679999,None,859.6038518839999,860.020830481,860.7207946340001,861.220905797,860.7207946340001,None,49,16,0,,,5,001,exponential,bryg,0.35-0.75,2021_May_18_1042,color_judgement_and_subjective_perception,2020.2.10,60.06465852373194,
3,0.35,testing,1000,1,,,,,,,,,0,0,0,0,6,1,25,3,,,,,861.8210327539999,None,k,0.6985337139999501,861.9210606149999,None,861.3208169159999,861.737715958,862.638390036,863.138685408,862.638390036,None,0,64,0,,,5,001,exponential,bryg,0.35-0.75,2021_May_18_1042,color_judgement_and_subjective_perception,2020.2.10,60.06465852373194,
2,0.35,testing,1000,1,,,,,,,,,0,0,0,0,6,2,26,2,,,,,863.7388402549999,None,j,0.8607547279998471,863.8387313080001,None,863.2386192339999,863.655411998,864.7222223350001,865.2225313719999,864.7222223350001,None,45,45,0,,,5,001,exponential,bryg,0.35-0.75,2021_May_18_1042,color_judgement_and_subjective_perception,2020.2.10,60.06465852373194,
0,0.35,testing,1000,1,,,,,,,,,0,0,0,0,6,3,27,0,,,,,865.822483628,None,None,-1,865.9224313839999,None,865.3223502330001,865.739026054,866.8391349130001,867.3393210969999,866.8391349130001,None,0,0,52,,,5,001,exponential,bryg,0.35-0.75,2021_May_18_1042,color_judgement_and_subjective_perception,2020.2.10,60.06465852373194,
1,0.35,testing,1000,1,,,,,,,,,0,0,0,0,7,0,28,1,,,,,867.9236196190001,None,j,0.4520076589999462,868.023594092,None,867.4258326779999,867.8403316539999,868.506852613,869.0070691760001,868.506852613,None,50,17,0,,,5,001,exponential,bryg,0.35-0.75,2021_May_18_1042,color_judgement_and_subjective_perception,2020.2.10,60.06465852373194,
2,0.35,testing,1000,1,,,,,,,,,0,0,0,0,7,1,29,2,,,,,869.607296518,None,d,0.6803016999999727,869.7072909059999,None,869.107060591,869.523885516,870.407279093,870.907403245,870.407279093,None,43,43,0,,,5,001,exponential,bryg,0.35-0.75,2021_May_18_1042,color_judgement_and_subjective_perception,2020.2.10,60.06465852373194,
3,0.35,testing,1000,1,,,,,,,,,0,0,0,0,7,2,30,3,,,,,871.507447841,None,k,0.5161269779998747,871.6074542719999,None,871.007276423,871.424209466,872.140742363,872.6252359900001,872.140742363,None,0,66,0,,,5,001,exponential,bryg,0.35-0.75,2021_May_18_1042,color_judgement_and_subjective_perception,2020.2.10,60.06465852373194,
0,0.35,testing,1000,1,,,,,,,,,0,0,0,0,7,3,31,0,,,,,873.225184837,None,j,0.31836585699988973,873.325235654,None,872.7250036009999,873.1419949279999,873.6750678699999,874.1754949560001,873.6750678699999,None,0,0,53,,,5,001,exponential,bryg,0.35-0.75,2021_May_18_1042,color_judgement_and_subjective_perception,2020.2.10,60.06465852373194,
1,0.35,testing,1000,1,,,,,,,,,0,0,0,0,8,0,32,1,,,,,874.7755592049999,None,f,0.736104897000132,874.8754767659999,None,874.275253483,874.6921777409999,875.64223895,876.142338644,875.64223895,None,53,18,0,,,5,001,exponential,bryg,0.35-0.75,2021_May_18_1042,color_judgement_and_subjective_perception,2020.2.10,60.06465852373194,
0,0.35,testing,1000,1,,,,,,,,,0,0,0,0,8,1,33,0,,,,,876.742509607,None,d,0.7609711610000431,876.842534885,None,876.2424058099999,876.6590700159999,877.626596361,878.1267819569999,877.626596361,None,0,0,54,,,5,001,exponential,bryg,0.35-0.75,2021_May_18_1042,color_judgement_and_subjective_perception,2020.2.10,60.06465852373194,
3,0.35,testing,1000,1,,,,,,,,,0,0,0,0,8,2,34,3,,,,,878.7268148429999,None,k,0.5047941100001481,878.8268203409999,None,878.2267594169999,878.6434095420001,879.3601395009999,879.8605147540001,879.3601395009999,None,0,63,0,,,5,001,exponential,bryg,0.35-0.75,2021_May_18_1042,color_judgement_and_subjective_perception,2020.2.10,60.06465852373194,
2,0.35,testing,1000,1,,,,,,,,,0,0,0,0,8,3,35,2,,,,,880.4605661879999,None,d,0.5469519060000039,880.560659607,None,879.960416306,880.3773798159999,881.1271196270001,881.627309032,881.1271196270001,None,42,42,0,,,5,001,exponential,bryg,0.35-0.75,2021_May_18_1042,color_judgement_and_subjective_perception,2020.2.10,60.06465852373194,
3,0.35,testing,1000,1,,,,,,,,,0,0,0,0,9,0,36,3,,,,,882.2273751900001,None,k,0.5880385939999542,882.3275665929999,None,881.727251014,882.1440951870001,882.9448805139999,883.444900433,882.9448805139999,None,0,60,0,,,5,001,exponential,bryg,0.35-0.75,2021_May_18_1042,color_judgement_and_subjective_perception,2020.2.10,60.06465852373194,
2,0.35,testing,1000,1,,,,,,,,,0,0,0,0,9,1,37,2,,,,,884.0448754569999,None,j,0.45060669899999084,884.144908242,None,883.5447922499999,883.9617068229999,884.628495692,885.128864955,884.628495692,None,41,41,0,,,5,001,exponential,bryg,0.35-0.75,2021_May_18_1042,color_judgement_and_subjective_perception,2020.2.10,60.06465852373194,
0,0.35,testing,1000,1,,,,,,,,,0,0,0,0,9,2,38,0,,,,,885.7286873049999,None,None,-1,885.828624094,None,885.2287228229999,885.645452163,886.745477049,887.245672376,886.745477049,None,0,0,50,,,5,001,exponential,bryg,0.35-0.75,2021_May_18_1042,color_judgement_and_subjective_perception,2020.2.10,60.06465852373194,
1,0.35,testing,1000,1,,,,,,,,,0,0,0,0,9,3,39,1,,,,,887.8297525899999,None,f,0.7059020340000188,887.9295917400001,None,887.345643863,887.746414033,888.6628311430001,889.163435281,888.6628311430001,None,45,15,0,,,5,001,exponential,bryg,0.35-0.75,2021_May_18_1042,color_judgement_and_subjective_perception,2020.2.10,60.06465852373194,
3,0.35,testing,1000,1,,,,,,,,,0,0,0,0,10,0,40,3,,,,,889.763826044,None,k,0.46791490700002214,889.863682369,None,889.263483417,889.68035054,890.3508313860001,890.7970296960001,890.3508313860001,None,0,55,0,,,5,001,exponential,bryg,0.35-0.75,2021_May_18_1042,color_judgement_and_subjective_perception,2020.2.10,60.06465852373194,
1,0.35,testing,1000,1,,,,,,,,,0,0,0,0,10,1,41,1,,,,,891.397140764,None,f,0.6983878490000279,891.4972272009999,None,890.8969313399999,891.3138315969999,892.213669112,892.698241163,892.213669112,None,42,14,0,,,5,001,exponential,bryg,0.35-0.75,2021_May_18_1042,color_judgement_and_subjective_perception,2020.2.10,60.06465852373194,
0,0.35,testing,1000,1,,,,,,,,,0,0,0,0,10,2,42,0,,,,,893.2980445279999,None,d,0.6693858300000102,893.3982075309999,None,892.798238554,893.2149083630001,894.098298735,894.598529301,894.098298735,None,0,0,47,,,5,001,exponential,bryg,0.35-0.75,2021_May_18_1042,color_judgement_and_subjective_perception,2020.2.10,60.06465852373194,
2,0.35,testing,1000,1,,,,,,,,,0,0,0,0,10,3,43,2,,,,,895.1986333000001,None,None,-1,895.298755032,None,894.6983929280001,895.1154222179999,896.2151309259999,896.7155392440001,896.2151309259999,None,34,34,0,,,5,001,exponential,bryg,0.35-0.75,2021_May_18_1042,color_judgement_and_subjective_perception,2020.2.10,60.06465852373194,
3,0.35,testing,1000,1,,,,,,,,,0,0,0,0,11,0,44,3,,,,,897.3154292349999,None,k,0.5812967049998861,897.414315314,None,896.8154772419999,897.2321023609999,898.016463868,898.5164751419999,898.016463868,None,0,50,0,,,5,001,exponential,bryg,0.35-0.75,2021_May_18_1042,color_judgement_and_subjective_perception,2020.2.10,60.06465852373194,
1,0.35,testing,1000,1,,,,,,,,,0,0,0,0,11,1,45,1,,,,,899.1166360369999,None,f,0.6429243939999196,899.216657415,None,898.61649439,899.033267165,899.883329421,900.3834997779999,899.883329421,None,37,12,0,,,5,001,exponential,bryg,0.35-0.75,2021_May_18_1042,color_judgement_and_subjective_perception,2020.2.10,60.06465852373194,
0,0.35,testing,1000,1,,,,,,,,,0,0,0,0,11,2,46,0,,,,,900.983446374,None,d,0.45610056700002133,901.0835017559999,None,900.4832960489999,900.900223707,901.566807128,902.067125211,901.566807128,None,0,0,42,,,5,001,exponential,bryg,0.35-0.75,2021_May_18_1042,color_judgement_and_subjective_perception,2020.2.10,60.06465852373194,
2,0.35,testing,1000,1,,,,,,,,,0,0,0,0,11,3,47,2,,,,,902.651353996,None,j,0.46833953700001985,902.7512659370001,None,902.167062052,902.5680385090001,903.2512412980001,903.7513805350001,903.2512412980001,None,31,31,0,,,5,001,exponential,bryg,0.35-0.75,2021_May_18_1042,color_judgement_and_subjective_perception,2020.2.10,60.06465852373194,
3,0.35,testing,1000,1,,,,,,,,,0,0,0,0,12,0,48,3,,,,,904.3516181030001,None,k,0.3360674049999943,904.4515262829999,None,903.85130973,904.26821016,904.8181955680001,905.3186119420001,904.8181955680001,None,0,45,0,,,5,001,exponential,bryg,0.35-0.75,2021_May_18_1042,color_judgement_and_subjective_perception,2020.2.10,60.06465852373194,
1,0.35,testing,1000,1,,,,,,,,,0,0,0,0,12,1,49,1,,,,,905.918508397,None,d,0.5929909199999202,906.018575687,None,905.418356735,905.835113662,906.635115403,907.135254359,906.635115403,None,32,11,0,,,5,001,exponential,bryg,0.35-0.75,2021_May_18_1042,color_judgement_and_subjective_perception,2020.2.10,60.06465852373194,
0,0.35,testing,1000,1,,,,,,,,,0,0,0,0,12,2,50,0,,,,,907.719582695,None,d,0.7600669720000042,907.819535127,None,907.235273704,907.6362501689999,908.6028677319999,909.103193542,908.6028677319999,None,0,0,37,,,5,001,exponential,bryg,0.35-0.75,2021_May_18_1042,color_judgement_and_subjective_perception,2020.2.10,60.06465852373194,
2,0.35,testing,1000,1,,,,,,,,,0,0,0,0,12,3,51,2,,,,,909.7032876080001,None,j,0.8082142319999548,909.8033384679999,None,909.203036881,909.619782465,910.6366522320001,911.136712118,910.6366522320001,None,26,26,0,,,5,001,exponential,bryg,0.35-0.75,2021_May_18_1042,color_judgement_and_subjective_perception,2020.2.10,60.06465852373194,
2,0.35,testing,1000,1,,,,,,,,,0,0,0,0,13,0,52,2,,,,,911.736803352,None,k,0.6547044639999058,911.8368867089999,None,911.2368015769999,911.6535905520001,912.5209380800001,913.0212826420001,912.5209380800001,None,24,24,0,,,5,001,exponential,bryg,0.35-0.75,2021_May_18_1042,color_judgement_and_subjective_perception,2020.2.10,60.06465852373194,
3,0.35,testing,1000,1,,,,,,,,,0,0,0,0,13,1,53,3,,,,,913.621221446,None,k,0.690228038999976,913.7213599160001,None,913.1211249429999,913.5380142309999,914.43794197,914.938299477,914.43794197,None,0,39,0,,,5,001,exponential,bryg,0.35-0.75,2021_May_18_1042,color_judgement_and_subjective_perception,2020.2.10,60.06465852373194,
0,0.35,testing,1000,1,,,,,,,,,0,0,0,0,13,2,54,0,,,,,915.538279663,None,d,0.7893796509999902,915.638222097,None,915.038250277,915.4550534690001,916.454871858,916.955068653,916.454871858,None,0,0,32,,,5,001,exponential,bryg,0.35-0.75,2021_May_18_1042,color_judgement_and_subjective_perception,2020.2.10,60.06465852373194,
1,0.35,testing,1000,1,,,,,,,,,0,0,0,0,13,3,55,1,,,,,917.539420277,None,d,0.6681824520001101,917.639406717,None,917.0551151179999,917.456152482,918.339379402,918.839542025,918.339379402,None,25,8,0,,,5,001,exponential,bryg,0.35-0.75,2021_May_18_1042,color_judgement_and_subjective_perception,2020.2.10,60.06465852373194,
2,0.35,testing,1000,1,,,,,,,,,0,0,0,0,14,0,56,2,,,,,919.43971028,None,j,0.7039124550001361,919.5396609630001,None,918.9394833560001,919.3563958619999,920.272997019,920.7731112140001,920.272997019,None,19,19,0,,,5,001,exponential,bryg,0.35-0.75,2021_May_18_1042,color_judgement_and_subjective_perception,2020.2.10,60.06465852373194,
0,0.35,testing,1000,1,,,,,,,,,0,0,0,0,14,1,57,0,,,,,921.373288358,None,None,-1,921.473301845,None,920.8731510260001,921.290038238,922.389818928,922.874493976,922.389818928,None,0,0,28,,,5,001,exponential,bryg,0.35-0.75,2021_May_18_1042,color_judgement_and_subjective_perception,2020.2.10,60.06465852373194,
3,0.35,testing,1000,1,,,,,,,,,0,0,0,0,14,2,58,3,,,,,923.4744872800001,None,j,0.3811093560000245,923.574454185,None,922.974290455,923.3910954479999,923.9743550479999,924.474743617,923.9743550479999,None,0,33,0,,,5,001,exponential,bryg,0.35-0.75,2021_May_18_1042,color_judgement_and_subjective_perception,2020.2.10,60.06465852373194,
1,0.35,testing,1000,1,,,,,,,,,0,0,0,0,14,3,59,1,,,,,925.07483799,None,d,0.6686394519999794,925.1749561529999,None,924.5746268700001,924.99138875,925.874684883,926.374827539,925.874684883,None,22,7,0,,,5,001,exponential,bryg,0.35-0.75,2021_May_18_1042,color_judgement_and_subjective_perception,2020.2.10,60.06465852373194,
3,0.35,testing,1000,1,,,,,,,,,0,0,0,0,15,0,60,3,,,,,926.9750775890001,None,k,0.856552825000108,927.0750518839999,None,926.4748485849999,926.8915198379999,927.959194531,928.4591941269999,927.959194531,None,0,34,0,,,5,001,exponential,bryg,0.35-0.75,2021_May_18_1042,color_judgement_and_subjective_perception,2020.2.10,60.06465852373194,
1,0.35,testing,1000,1,,,,,,,,,0,0,0,0,15,1,61,1,,,,,929.0592865,None,j,0.732168295999827,929.1593674520001,None,928.559170547,928.976101957,929.909569153,930.409831114,929.909569153,None,23,8,0,,,5,001,exponential,bryg,0.35-0.75,2021_May_18_1042,color_judgement_and_subjective_perception,2020.2.10,60.06465852373194,
0,0.35,testing,1000,1,,,,,,,,,0,0,0,0,15,2,62,0,,,,,931.009802014,None,k,0.7737979610001275,931.10977141,None,930.509504153,930.926460449,931.9097485640001,932.4098883139999,931.9097485640001,None,0,0,28,,,5,001,exponential,bryg,0.35-0.75,2021_May_18_1042,color_judgement_and_subjective_perception,2020.2.10,60.06465852373194,
2,0.35,testing,1000,1,,,,,,,,,0,0,0,0,15,3,63,2,,,,,932.9942590489999,None,d,0.6934467969999787,933.094141619,None,932.494270713,932.9109071429999,933.8108947080001,934.31119258,933.8108947080001,None,19,19,0,,,5,001,exponential,bryg,0.35-0.75,2021_May_18_1042,color_judgement_and_subjective_perception,2020.2.10,60.06465852373194,
3,0.35,testing,1000,1,,,,,,,,,0,0,0,0,16,0,64,3,,,,,934.9112380979999,None,k,0.872369678000041,935.011217092,None,934.410949552,934.8279896800001,935.911095329,936.4113425249999,935.911095329,None,0,35,0,,,5,001,exponential,bryg,0.35-0.75,2021_May_18_1042,color_judgement_and_subjective_perception,2020.2.10,60.06465852373194,
2,0.35,testing,1000,1,,,,,,,,,0,0,0,0,16,1,65,2,,,,,937.011301011,None,d,0.8041218190001018,937.1114519690001,None,936.511250532,936.9281644019999,937.945693168,938.4458587810001,937.945693168,None,18,18,0,,,5,001,exponential,bryg,0.35-0.75,2021_May_18_1042,color_judgement_and_subjective_perception,2020.2.10,60.06465852373194,
0,0.35,testing,1000,1,,,,,,,,,0,0,0,0,16,2,66,0,,,,,939.045998745,None,j,0.7137180289998923,939.14589128,None,938.545800832,938.962684598,939.8793294819999,940.379620783,939.8793294819999,None,0,0,29,,,5,001,exponential,bryg,0.35-0.75,2021_May_18_1042,color_judgement_and_subjective_perception,2020.2.10,60.06465852373194,
1,0.35,testing,1000,1,,,,,,,,,0,0,0,0,16,3,67,1,,,,,940.9793891769999,None,j,0.6999623789999987,941.079618938,None,940.479381602,940.89618241,941.796256813,942.296531028,941.796256813,None,28,9,0,,,5,001,exponential,bryg,0.35-0.75,2021_May_18_1042,color_judgement_and_subjective_perception,2020.2.10,60.06465852373194,
0,0.35,testing,1000,1,,,,,,,,,0,0,0,0,17,0,68,0,,,,,942.8808082699999,None,d,0.5348068050000165,942.980792945,None,942.396422225,942.797281626,943.547177795,944.0472865600001,943.547177795,None,0,0,32,,,5,001,exponential,bryg,0.35-0.75,2021_May_18_1042,color_judgement_and_subjective_perception,2020.2.10,60.06465852373194,
3,0.35,testing,1000,1,,,,,,,,,0,0,0,0,17,1,69,3,,,,,944.647427559,None,j,0.6958533699998952,944.747771441,None,944.1474881519999,944.5640829150001,945.464128897,945.964424185,945.464128897,None,0,35,0,,,5,001,exponential,bryg,0.35-0.75,2021_May_18_1042,color_judgement_and_subjective_perception,2020.2.10,60.06465852373194,
2,0.35,testing,1000,1,,,,,,,,,0,0,0,0,17,2,70,2,,,,,946.5646613099999,None,d,0.8829643940000551,946.66462442,None,946.0645093459999,946.481283792,947.56541218,948.065712704,947.56541218,None,22,22,0,,,5,001,exponential,bryg,0.35-0.75,2021_May_18_1042,color_judgement_and_subjective_perception,2020.2.10,60.06465852373194,
1,0.35,testing,1000,1,,,,,,,,,0,0,0,0,17,3,71,1,,,,,948.66574925,None,d,0.8378875079999943,948.7656922709999,None,948.1654647839999,948.582493821,949.6324370179999,950.1326947480001,949.6324370179999,None,31,10,0,,,5,001,exponential,bryg,0.35-0.75,2021_May_18_1042,color_judgement_and_subjective_perception,2020.2.10,60.06465852373194,
1,0.35,testing,1000,1,,,,,,,,,0,0,0,0,18,0,72,1,,,,,950.732709951,None,f,0.5868435749998753,950.832749586,None,950.23263362,950.64939584,951.4492318389999,951.9495719380001,951.4492318389999,None,33,11,0,,,5,001,exponential,bryg,0.35-0.75,2021_May_18_1042,color_judgement_and_subjective_perception,2020.2.10,60.06465852373194,
0,0.35,testing,1000,1,,,,,,,,,0,0,0,0,18,1,73,0,,,,,952.5339231910001,None,j,0.8415144800001144,952.6340577110001,None,952.0495668309999,952.4510033810001,953.5004933219999,954.0007090370001,953.5004933219999,None,0,0,32,,,5,001,exponential,bryg,0.35-0.75,2021_May_18_1042,color_judgement_and_subjective_perception,2020.2.10,60.06465852373194,
3,0.35,testing,1000,1,,,,,,,,,0,0,0,0,18,2,74,3,,,,,954.6008818839999,None,k,0.8947475479999412,954.70086381,None,954.10063033,954.517484369,955.617454713,956.117591245,955.617454713,None,0,37,0,,,5,001,exponential,bryg,0.35-0.75,2021_May_18_1042,color_judgement_and_subjective_perception,2020.2.10,60.06465852373194,
2,0.35,testing,1000,1,,,,,,,,,0,0,0,0,18,3,75,2,,,,,956.7178317459999,None,d,0.6577345939999759,956.817861811,None,956.2176797169999,956.634567274,957.502182222,958.002209376,957.502182222,None,24,24,0,,,5,001,exponential,bryg,0.35-0.75,2021_May_18_1042,color_judgement_and_subjective_perception,2020.2.10,60.06465852373194,
3,0.35,testing,1000,1,,,,,,,,,0,0,0,0,19,0,76,3,,,,,958.60227576,None,k,0.8134119070000452,958.7021791619999,None,958.1022055130001,958.5189007600001,959.535509743,960.0357246309999,959.535509743,None,0,36,0,,,5,001,exponential,bryg,0.35-0.75,2021_May_18_1042,color_judgement_and_subjective_perception,2020.2.10,60.06465852373194,
0,0.35,testing,1000,1,,,,,,,,,0,0,0,0,19,1,77,0,,,,,960.6359515759999,None,d,0.6678132990000449,960.7358162479999,None,960.1358063920001,960.552506545,961.43575497,961.93602623,961.43575497,None,0,0,33,,,5,001,exponential,bryg,0.35-0.75,2021_May_18_1042,color_judgement_and_subjective_perception,2020.2.10,60.06465852373194,
1,0.35,testing,1000,1,,,,,,,,,0,0,0,0,19,2,78,1,,,,,962.520357147,None,j,0.7111144269999841,962.620398375,None,962.035964367,962.4440717389999,963.3537361140001,963.853940371,963.3537361140001,None,30,10,0,,,5,001,exponential,bryg,0.35-0.75,2021_May_18_1042,color_judgement_and_subjective_perception,2020.2.10,60.06465852373194,
2,0.35,testing,1000,1,,,,,,,,,0,0,0,0,19,3,79,2,,,,,964.453936086,None,d,0.6416318599999613,964.553964911,None,963.9539309529999,964.370690013,965.2206538009999,965.7207744579999,965.2206538009999,None,23,23,0,,,5,001,exponential,bryg,0.35-0.75,2021_May_18_1042,color_judgement_and_subjective_perception,2020.2.10,60.06465852373194,
1,0.35,testing,1000,1,,,,,,,,,0,0,0,0,20,0,80,1,,,,,966.320921459,None,None,-1,966.420893759,None,965.820710198,966.2374714439999,967.337559207,967.8219812599999,967.337559207,None,31,10,0,,,5,001,exponential,bryg,0.35-0.75,2021_May_18_1042,color_judgement_and_subjective_perception,2020.2.10,60.06465852373194,
0,0.35,testing,1000,1,,,,,,,,,0,0,0,0,20,1,81,0,,,,,968.421980578,None,j,0.5616263459999118,968.5219801009999,None,967.921943661,968.338667397,969.1052425050001,969.605597093,969.1052425050001,None,0,0,32,,,5,001,exponential,bryg,0.35-0.75,2021_May_18_1042,color_judgement_and_subjective_perception,2020.2.10,60.06465852373194,
2,0.35,testing,1000,1,,,,,,,,,0,0,0,0,20,2,82,2,,,,,970.205720756,None,d,0.8178581849999773,970.305742166,None,969.70562977,970.122431466,971.1556037920001,971.655870278,971.1556037920001,None,27,27,0,,,5,001,exponential,bryg,0.35-0.75,2021_May_18_1042,color_judgement_and_subjective_perception,2020.2.10,60.06465852373194,
3,0.35,testing,1000,1,,,,,,,,,0,0,0,0,20,3,83,3,,,,,972.2561136789999,None,k,0.671477902000106,972.3561047219999,None,971.755850723,972.172633794,973.056669082,973.556849441,973.056669082,None,0,36,0,,,5,001,exponential,bryg,0.35-0.75,2021_May_18_1042,color_judgement_and_subjective_perception,2020.2.10,60.06465852373194,
2,0.35,testing,1000,1,,,,,,,,,0,0,0,0,21,0,84,2,,,,,974.156951784,None,d,0.7144993819999854,974.257086532,None,973.6568665240001,974.073603767,974.9905069780001,975.490737767,974.9905069780001,None,28,28,0,,,5,001,exponential,bryg,0.35-0.75,2021_May_18_1042,color_judgement_and_subjective_perception,2020.2.10,60.06465852373194,
1,0.35,testing,1000,1,,,,,,,,,0,0,0,0,21,1,85,1,,,,,976.0906887130001,None,None,-1,976.190729257,None,975.5905497069999,976.0073035480001,977.1072927260001,977.591819914,977.1072927260001,None,35,12,0,,,5,001,exponential,bryg,0.35-0.75,2021_May_18_1042,color_judgement_and_subjective_perception,2020.2.10,60.06465852373194,
3,0.35,testing,1000,1,,,,,,,,,0,0,0,0,21,2,86,3,,,,,978.1917861180001,None,k,0.7359306949999791,978.2916657009999,None,977.691668668,978.108562022,979.058469467,979.5588108579999,979.058469467,None,0,36,0,,,5,001,exponential,bryg,0.35-0.75,2021_May_18_1042,color_judgement_and_subjective_perception,2020.2.10,60.06465852373194,
0,0.35,testing,1000,1,,,,,,,,,0,0,0,0,21,3,87,0,,,,,980.1588367640001,None,j,0.784731402000034,980.258843638,None,979.658709833,980.07530409,981.0753323719999,981.575563087,981.0753323719999,None,0,0,33,,,5,001,exponential,bryg,0.35-0.75,2021_May_18_1042,color_judgement_and_subjective_perception,2020.2.10,60.06465852373194,
0,0.35,testing,1000,1,,,,,,,,,0,0,0,0,22,0,88,0,,,,,982.175736395,None,j,0.7597372070001711,982.2758427770001,None,981.675507498,982.092528651,983.059853055,983.560147429,983.059853055,None,0,0,35,,,5,001,exponential,bryg,0.35-0.75,2021_May_18_1042,color_judgement_and_subjective_perception,2020.2.10,60.06465852373194,
1,0.35,testing,1000,1,,,,,,,,,0,0,0,0,22,1,89,1,,,,,984.160184062,None,None,-1,984.260228427,None,983.660016278,984.076880552,985.1769199920001,985.6769853249999,985.1769199920001,None,38,13,0,,,5,001,exponential,bryg,0.35-0.75,2021_May_18_1042,color_judgement_and_subjective_perception,2020.2.10,60.06465852373194,
3,0.35,testing,1000,1,,,,,,,,,0,0,0,0,22,2,90,3,,,,,986.2770537099999,None,k,0.5943804519999958,986.377098064,None,985.7769874459999,986.1939964510001,986.993847936,987.478432188,986.993847936,None,0,37,0,,,5,001,exponential,bryg,0.35-0.75,2021_May_18_1042,color_judgement_and_subjective_perception,2020.2.10,60.06465852373194,
2,0.35,testing,1000,1,,,,,,,,,0,0,0,0,22,3,91,2,,,,,988.078225802,None,d,0.6252625399999943,988.178304418,None,987.5782224339999,987.995052528,988.828306326,989.3284148199999,988.828306326,None,32,32,0,,,5,001,exponential,bryg,0.35-0.75,2021_May_18_1042,color_judgement_and_subjective_perception,2020.2.10,60.06465852373194,
0,0.35,testing,1000,1,,,,,,,,,0,0,0,0,23,0,92,0,,,,,989.9287462409999,None,None,-1,990.028728467,None,989.428417509,989.845301899,990.945262198,991.445460793,990.945262198,None,0,0,38,,,5,001,exponential,bryg,0.35-0.75,2021_May_18_1042,color_judgement_and_subjective_perception,2020.2.10,60.06465852373194,
1,0.35,testing,1000,1,,,,,,,,,0,0,0,0,23,1,93,1,,,,,992.045537355,None,f,0.5540044619999662,992.145583395,None,991.545344554,991.962225781,992.729798215,993.2299936769999,992.729798215,None,41,14,0,,,5,001,exponential,bryg,0.35-0.75,2021_May_18_1042,color_judgement_and_subjective_perception,2020.2.10,60.06465852373194,
3,0.35,testing,1000,1,,,,,,,,,0,0,0,0,23,2,94,3,,,,,993.8299309999999,None,k,0.737524619999931,993.9300456249999,None,993.330046075,993.74667093,994.6967517730001,995.197001787,994.6967517730001,None,0,36,0,,,5,001,exponential,bryg,0.35-0.75,2021_May_18_1042,color_judgement_and_subjective_perception,2020.2.10,60.06465852373194,
2,0.35,testing,1000,1,,,,,,,,,0,0,0,0,23,3,95,2,,,,,995.796928632,None,k,0.5225374970000303,995.897038728,None,995.2968317599999,995.7136362509999,996.4467766250001,996.9471717539999,996.4467766250001,None,33,33,0,,,5,001,exponential,bryg,0.35-0.75,2021_May_18_1042,color_judgement_and_subjective_perception,2020.2.10,60.06465852373194,
2,0.35,testing,1000,1,,,,,,,,,0,0,0,0,,,,,0,0,0,2,1021.1549941540001,None,j,0.7406184760000087,1021.254966395,None,1020.6547044600001,1021.0715437309999,1022.024410717,1022.5061370110001,1022.024410717,None,33,33,0,997.0641737709999,None,5,001,exponential,bryg,0.35-0.75,2021_May_18_1042,color_judgement_and_subjective_perception,2020.2.10,60.06465852373194,
1,0.35,testing,1000,1,,,,,,,,,0,0,0,0,,,,,0,1,1,1,1023.106199662,None,f,0.7814675049999096,1023.2061166739999,None,1022.606019946,1023.022872803,1024.006054114,1024.506419811,1024.006054114,None,36,12,0,None,None,5,001,exponential,bryg,0.35-0.75,2021_May_18_1042,color_judgement_and_subjective_perception,2020.2.10,60.06465852373194,
0,0.35,testing,1000,1,,,,,,,,,0,0,0,0,,,,,0,2,2,0,1025.106535205,None,j,0.8050452229999792,1025.2065534160001,None,1024.6061472229999,1025.0232513269998,1026.0411543599998,1026.539892831,1026.0411543599998,None,0,0,35,None,None,5,001,exponential,bryg,0.35-0.75,2021_May_18_1042,color_judgement_and_subjective_perception,2020.2.10,60.06465852373194,
0,0.35,testing,1000,1,,,,,,,,,0,0,0,0,,,,,0,3,3,0,1027.1400698799998,None,d,0.5075372070000412,1027.2400511,None,1026.639714459,1027.056686773,1027.775652961,1028.274348672,1027.775652961,None,0,0,35,None,None,5,001,exponential,bryg,0.35-0.75,2021_May_18_1042,color_judgement_and_subjective_perception,2020.2.10,60.06465852373194,
1,0.35,testing,1000,1,,,,,,,,,0,0,0,0,,,,,1,0,4,1,1028.8743792250002,None,f,0.7411860319998596,1028.974414978,None,1028.3741616900002,1028.791071215,1029.7411505999999,1030.241390359,1029.7411505999999,None,32,11,0,None,None,5,001,exponential,bryg,0.35-0.75,2021_May_18_1042,color_judgement_and_subjective_perception,2020.2.10,60.06465852373194,
3,0.35,testing,1000,1,,,,,,,,,0,0,0,0,,,,,1,1,5,3,1030.841423981,None,None,-1,1030.94137491,None,1030.34121804,1030.75820437,1031.858880327,1032.358452166,1031.858880327,None,0,28,0,None,None,5,001,exponential,bryg,0.35-0.75,2021_May_18_1042,color_judgement_and_subjective_perception,2020.2.10,60.06465852373194,
3,0.35,testing,1000,1,,,,,,,,,0,0,0,0,,,,,1,2,6,3,1032.94267361,None,j,0.48887598700002854,1033.042684139,None,1032.456797154,1032.8592817469998,1033.5607890649999,1034.0593022950002,1033.5607890649999,None,0,26,0,None,None,5,001,exponential,bryg,0.35-0.75,2021_May_18_1042,color_judgement_and_subjective_perception,2020.2.10,60.06465852373194,
1,0.35,testing,1000,1,,,,,,,,,0,0,0,0,,,,,1,3,7,1,1034.6594797970001,None,f,0.8200743590000457,1034.759507187,None,1034.159286603,1034.576230647,1035.611548202,1036.1097013529998,1035.611548202,None,28,9,0,None,None,5,001,exponential,bryg,0.35-0.75,2021_May_18_1042,color_judgement_and_subjective_perception,2020.2.10,60.06465852373194,
0,0.35,testing,1000,1,,,,,,,,,0,0,0,0,,,,,2,0,8,0,1036.7098616600001,None,j,0.7776772279999022,1036.809852159,None,1036.2095255089998,1036.6265298439998,1037.6124833560002,1038.1107808040001,1037.6124833560002,None,0,0,29,None,None,5,001,exponential,bryg,0.35-0.75,2021_May_18_1042,color_judgement_and_subjective_perception,2020.2.10,60.06465852373194,
0,0.35,testing,1000,1,,,,,,,,,0,0,0,0,,,,,2,1,9,0,1038.7108911690002,None,d,0.6726026280000497,1038.8109828739998,None,1038.210608192,1038.627538612,1039.51259648,1040.01124252,1039.51259648,None,0,0,29,None,None,5,001,exponential,bryg,0.35-0.75,2021_May_18_1042,color_judgement_and_subjective_perception,2020.2.10,60.06465852373194,
0,0.35,testing,1000,1,,,,,,,,,0,0,0,0,,,,,2,2,10,0,1040.6111958430001,None,j,0.724349482999969,1040.7112485940002,None,1040.11111825,1040.5280418890002,1041.462682411,1041.96149406,1041.462682411,None,0,0,27,None,None,5,001,exponential,bryg,0.35-0.75,2021_May_18_1042,color_judgement_and_subjective_perception,2020.2.10,60.06465852373194,
1,0.35,testing,1000,1,,,,,,,,,0,0,0,0,,,,,2,3,11,1,1042.545843548,None,None,-1,1042.6457184649998,None,1042.061204815,1042.469576086,1043.56307195,1044.062564506,1043.56307195,None,23,8,0,None,None,5,001,exponential,bryg,0.35-0.75,2021_May_18_1042,color_judgement_and_subjective_perception,2020.2.10,60.06465852373194,
2,0.35,testing,1000,1,,,,,,,,,0,0,0,0,,,,,3,0,12,2,1044.66281772,None,None,-1,1044.7628023930001,None,1044.1623650360002,1044.5791240990002,1045.6792043320002,1046.179534809,1045.6792043320002,None,22,22,0,None,None,5,001,exponential,bryg,0.35-0.75,2021_May_18_1042,color_judgement_and_subjective_perception,2020.2.10,60.06465852373194,
0,0.35,testing,1000,1,,,,,,,,,0,0,0,0,,,,,3,1,13,0,1046.7797026429998,None,j,0.5799771230001625,1046.8796330219998,None,1046.2793688880001,1046.6961911079998,1047.4789347709998,1047.963783047,1047.4789347709998,None,0,0,29,None,None,5,001,exponential,bryg,0.35-0.75,2021_May_18_1042,color_judgement_and_subjective_perception,2020.2.10,60.06465852373194,
2,0.35,testing,1000,1,,,,,,,,,0,0,0,0,,,,,3,2,14,2,1048.564018389,None,k,0.7233996920001573,1048.664153184,None,1048.0637628220002,1048.480643029,1049.414077457,1049.9144196480001,1049.414077457,None,25,25,0,None,None,5,001,exponential,bryg,0.35-0.75,2021_May_18_1042,color_judgement_and_subjective_perception,2020.2.10,60.06465852373194,
0,0.35,testing,1000,1,,,,,,,,,0,0,0,0,,,,,3,3,15,0,1050.5144768760001,None,d,0.6532431189998533,1050.614346882,None,1050.014243997,1050.4310724809998,1051.2993804869998,1051.7979066409998,1051.2993804869998,None,0,0,32,None,None,5,001,exponential,bryg,0.35-0.75,2021_May_18_1042,color_judgement_and_subjective_perception,2020.2.10,60.06465852373194,
3,0.35,testing,1000,1,,,,,,,,,0,0,0,0,,,,,4,0,16,3,1052.398013296,None,j,0.6887837270001,1052.48277122,None,1051.8977443590002,1052.3145715320002,1053.2004601200001,1053.6990371840002,1053.2004601200001,None,0,23,0,None,None,5,001,exponential,bryg,0.35-0.75,2021_May_18_1042,color_judgement_and_subjective_perception,2020.2.10,60.06465852373194,
0,0.35,testing,1000,1,,,,,,,,,0,0,0,0,,,,,4,1,17,0,1054.299045396,None,d,0.7883279010000024,1054.3992246839998,None,1053.798803011,1054.2156696860002,1055.2176837319998,1055.715975791,1055.2176837319998,None,0,0,31,None,None,5,001,exponential,bryg,0.35-0.75,2021_May_18_1042,color_judgement_and_subjective_perception,2020.2.10,60.06465852373194,
1,0.35,testing,1000,1,,,,,,,,,0,0,0,0,,,,,4,2,18,1,1056.315994046,None,d,0.8674744749998808,1056.4160537439998,None,1055.8158532510001,1056.2326679950002,1057.31783185,1057.800513275,1057.31783185,None,25,8,0,None,None,5,001,exponential,bryg,0.35-0.75,2021_May_18_1042,color_judgement_and_subjective_perception,2020.2.10,60.06465852373194,
3,0.35,testing,1000,1,,,,,,,,,0,0,0,0,,,,,4,3,19,3,1058.400506909,None,j,0.5030334909999965,1058.500570704,None,1057.900338947,1058.317102769,1059.0338964910002,1059.5341197120001,1059.0338964910002,None,0,25,0,None,None,5,001,exponential,bryg,0.35-0.75,2021_May_18_1042,color_judgement_and_subjective_perception,2020.2.10,60.06465852373194,
3,0.35,testing,1000,1,,,,,,,,,0,0,0,0,,,,,5,0,20,3,1060.134283556,None,d,0.4412167020000197,1060.2343223029998,None,1059.6338714489998,1060.0507422689998,1060.700772011,1061.200887766,1060.700772011,None,0,27,0,None,None,5,001,exponential,bryg,0.35-0.75,2021_May_18_1042,color_judgement_and_subjective_perception,2020.2.10,60.06465852373194,
0,0.35,testing,1000,1,,,,,,,,,0,0,0,0,,,,,5,1,21,0,1061.801042001,None,j,0.3986574699999892,1061.9009741599998,None,1061.3007525799999,1061.7176739349998,1062.317774173,1062.8020698700002,1062.317774173,None,0,0,32,None,None,5,001,exponential,bryg,0.35-0.75,2021_May_18_1042,color_judgement_and_subjective_perception,2020.2.10,60.06465852373194,
1,0.35,testing,1000,1,,,,,,,,,0,0,0,0,,,,,5,2,22,1,1063.4020829330002,None,j,0.789522462999912,1063.502079939,None,1062.901994325,1063.318828724,1064.3187887499998,1064.81912645,1064.3187887499998,None,28,9,0,None,None,5,001,exponential,bryg,0.35-0.75,2021_May_18_1042,color_judgement_and_subjective_perception,2020.2.10,60.06465852373194,
3,0.35,testing,1000,1,,,,,,,,,0,0,0,0,,,,,5,3,23,3,1065.419119705,None,j,0.5963881150000816,1065.519203897,None,1064.919011428,1065.335882065,1066.1357641529999,1066.6357773700001,1066.1357641529999,None,0,31,0,None,None,5,001,exponential,bryg,0.35-0.75,2021_May_18_1042,color_judgement_and_subjective_perception,2020.2.10,60.06465852373194,
2,0.35,testing,1000,1,,,,,,,,,0,0,0,0,,,,,6,0,24,2,1067.2360411549998,None,d,0.6754803540000012,1067.336089646,None,1066.7357768890001,1067.1528526729999,1068.0367381,1068.5369025979999,1068.0367381,None,32,32,0,None,None,5,001,exponential,bryg,0.35-0.75,2021_May_18_1042,color_judgement_and_subjective_perception,2020.2.10,60.06465852373194,
2,0.35,testing,1000,1,,,,,,,,,0,0,0,0,,,,,6,1,25,2,1069.137124857,None,k,0.7345739620000131,1069.2370373190001,None,1068.6369588409998,1069.053735428,1070.003744831,1070.504103288,1070.003744831,None,34,34,0,None,None,5,001,exponential,bryg,0.35-0.75,2021_May_18_1042,color_judgement_and_subjective_perception,2020.2.10,60.06465852373194,
2,0.35,testing,1000,1,,,,,,,,,0,0,0,0,,,,,6,2,26,2,1071.104056743,None,f,0.7594818549998763,1071.204093409,None,1070.603790319,1071.0208957639998,1071.9874106030002,1072.4791531249998,1071.9874106030002,None,36,36,0,None,None,5,001,exponential,bryg,0.35-0.75,2021_May_18_1042,color_judgement_and_subjective_perception,2020.2.10,60.06465852373194,
0,0.35,testing,1000,1,,,,,,,,,0,0,0,0,,,,,6,3,27,0,1073.0720602299998,None,f,0.767695920000051,1073.1718823350002,None,1072.571779419,1072.9886568379998,1073.97179623,1074.472138701,1073.97179623,None,0,0,37,None,None,5,001,exponential,bryg,0.35-0.75,2021_May_18_1042,color_judgement_and_subjective_perception,2020.2.10,60.06465852373194,
1,0.35,testing,1000,1,,,,,,,,,0,0,0,0,,,,,7,0,28,1,1075.072309565,None,f,0.5032175690000713,1075.172362671,None,1074.5718317,1074.988970506,1075.7074954129998,1076.205794383,1075.7074954129998,None,35,12,0,None,None,5,001,exponential,bryg,0.35-0.75,2021_May_18_1042,color_judgement_and_subjective_perception,2020.2.10,60.06465852373194,
3,0.35,testing,1000,1,,,,,,,,,0,0,0,0,,,,,7,1,29,3,1076.8058209659998,None,k,0.6976414789999126,1076.905860893,None,1076.3054990659998,1076.7223028399999,1077.6254766460002,1078.123403184,1077.6254766460002,None,0,38,0,None,None,5,001,exponential,bryg,0.35-0.75,2021_May_18_1042,color_judgement_and_subjective_perception,2020.2.10,60.06465852373194,
3,0.35,testing,1000,1,,,,,,,,,0,0,0,0,,,,,7,2,30,3,1078.72355521,None,j,0.7320344219999697,1078.823561829,None,1078.2232313129998,1078.6401512470002,1079.575320547,1080.073760658,1079.575320547,None,0,36,0,None,None,5,001,exponential,bryg,0.35-0.75,2021_May_18_1042,color_judgement_and_subjective_perception,2020.2.10,60.06465852373194,
0,0.35,testing,1000,1,,,,,,,,,0,0,0,0,,,,,7,3,31,0,1080.6740953849999,None,d,0.6617052390001845,1080.773893217,None,1080.1736870179998,1080.590517643,1081.458760048,1081.9575856410002,1081.458760048,None,0,0,38,None,None,5,001,exponential,bryg,0.35-0.75,2021_May_18_1042,color_judgement_and_subjective_perception,2020.2.10,60.06465852373194,
1,0.35,testing,1000,1,,,,,,,,,0,0,0,0,,,,,8,0,32,1,1082.5417378030002,None,None,-1,1082.641873227,None,1082.057311304,1082.472789809,1083.559196623,1084.0583896389999,1083.559196623,None,32,11,0,None,None,5,001,exponential,bryg,0.35-0.75,2021_May_18_1042,color_judgement_and_subjective_perception,2020.2.10,60.06465852373194,
2,0.35,testing,1000,1,,,,,,,,,0,0,0,0,,,,,8,1,33,2,1084.6586442970001,None,d,0.8447284129999844,1084.7588413879998,None,1084.15840733,1084.575309668,1085.626845756,1086.1255087959998,1085.626845756,None,36,36,0,None,None,5,001,exponential,bryg,0.35-0.75,2021_May_18_1042,color_judgement_and_subjective_perception,2020.2.10,60.06465852373194,
0,0.35,testing,1000,1,,,,,,,,,0,0,0,0,,,,,8,2,34,0,1086.7254860469998,None,d,0.8418382360000578,1086.8257156270001,None,1086.2253599269998,1086.642265298,1087.694846461,1088.193139293,1087.694846461,None,0,0,36,None,None,5,001,exponential,bryg,0.35-0.75,2021_May_18_1042,color_judgement_and_subjective_perception,2020.2.10,60.06465852373194,
1,0.35,testing,1000,1,,,,,,,,,0,0,0,0,,,,,8,3,35,1,1088.7933583580002,None,f,0.590311378000024,1088.8932910100002,None,1088.2929826640002,1088.710012516,1089.510179671,1090.010439009,1089.510179671,None,32,11,0,None,None,5,001,exponential,bryg,0.35-0.75,2021_May_18_1042,color_judgement_and_subjective_perception,2020.2.10,60.06465852373194,
3,0.35,testing,1000,1,,,,,,,,,0,0,0,0,,,,,9,0,36,3,1090.610290524,None,d,0.7651856210000005,1090.7104209029999,None,1090.1101698520001,1090.5270764729999,1091.4953961759998,1091.9939343239998,1091.4953961759998,None,0,33,0,None,None,5,001,exponential,bryg,0.35-0.75,2021_May_18_1042,color_judgement_and_subjective_perception,2020.2.10,60.06465852373194,
2,0.35,testing,1000,1,,,,,,,,,0,0,0,0,,,,,9,1,37,2,1092.578189424,None,None,-1,1092.678272404,None,1092.093783964,1092.4954161330002,1093.5955348819998,1094.0952346630002,1093.5955348819998,None,35,35,0,None,None,5,001,exponential,bryg,0.35-0.75,2021_May_18_1042,color_judgement_and_subjective_perception,2020.2.10,60.06465852373194,
2,0.35,testing,1000,1,,,,,,,,,0,0,0,0,,,,,9,2,38,2,1094.695291523,None,j,0.424298336999982,1094.7953127310002,None,1094.1949112759999,1094.6117851939998,1095.2470309740002,1095.7453265600002,1095.2470309740002,None,37,37,0,None,None,5,001,exponential,bryg,0.35-0.75,2021_May_18_1042,color_judgement_and_subjective_perception,2020.2.10,60.06465852373194,
2,0.35,testing,1000,1,,,,,,,,,0,0,0,0,,,,,9,3,39,2,1096.3454262760001,None,j,0.5741477899998699,1096.445456249,None,1095.8451100359998,1096.26195668,1097.04532117,1097.529848236,1097.04532117,None,37,37,0,None,None,5,001,exponential,bryg,0.35-0.75,2021_May_18_1042,color_judgement_and_subjective_perception,2020.2.10,60.06465852373194,
1,0.35,testing,1000,1,,,,,,,,,0,0,0,0,,,,,10,0,40,1,1098.1298371990001,None,d,0.6377105930000653,1098.2298676290002,None,1097.629633303,1098.046698823,1098.8981895779998,1099.396622583,1098.8981895779998,None,28,9,0,None,None,5,001,exponential,bryg,0.35-0.75,2021_May_18_1042,color_judgement_and_subjective_perception,2020.2.10,60.06465852373194,
3,0.35,testing,1000,1,,,,,,,,,0,0,0,0,,,,,10,1,41,3,1099.9968461929998,None,d,0.4426438479999888,1100.096964326,None,1099.4965082009999,1099.9134823190002,1100.560820366,1100.921466278,1100.560820366,None,0,31,0,None,None,5,001,exponential,bryg,0.35-0.75,2021_May_18_1042,color_judgement_and_subjective_perception,2020.2.10,60.06465852373194,
2,0.35,testing,1000,1,,,,,,,,,0,0,0,0,,,,,10,2,42,2,1101.2654691449998,None,j,0.4725312140001279,1101.323023713,None,1100.980533555,1101.2176099509998,1101.815636748,1102.313907538,1101.815636748,None,35,35,0,None,None,5,001,exponential,bryg,0.35-0.75,2021_May_18_1042,color_judgement_and_subjective_perception,2020.2.10,60.06465852373194,
3,0.35,testing,1000,1,,,,,,,,,0,0,0,0,,,,,10,3,43,3,1102.898137702,None,j,0.5493909809999877,1102.9981659149998,None,1102.413622954,1102.8148453180002,1103.5667986419999,1104.0647846749998,1103.5667986419999,None,0,32,0,None,None,5,001,exponential,bryg,0.35-0.75,2021_May_18_1042,color_judgement_and_subjective_perception,2020.2.10,60.06465852373194,
3,0.35,testing,1000,1,,,,,,,,,0,0,0,0,,,,,11,0,44,3,1104.665039727,None,d,0.6545522839999194,1104.765040957,None,1104.1647123950002,1104.5817662159998,1105.448394384,1105.9485646379999,1105.448394384,None,0,32,0,None,None,5,001,exponential,bryg,0.35-0.75,2021_May_18_1042,color_judgement_and_subjective_perception,2020.2.10,60.06465852373194,
3,0.35,testing,1000,1,,,,,,,,,0,0,0,0,,,,,11,1,45,3,1106.548614115,None,j,0.49902681100002155,1106.6485481539999,None,1106.048435832,1106.4652284019999,1107.1655062680002,1107.6497136560001,1107.1655062680002,None,0,34,0,None,None,5,001,exponential,bryg,0.35-0.75,2021_May_18_1042,color_judgement_and_subjective_perception,2020.2.10,60.06465852373194,
2,0.35,testing,1000,1,,,,,,,,,0,0,0,0,,,,,11,2,46,2,1108.249561304,None,d,0.4219134850000046,1108.3496739850002,None,1107.7494977229999,1108.1663698359998,1108.7995844379998,1109.2999071489999,1108.7995844379998,None,34,34,0,None,None,5,001,exponential,bryg,0.35-0.75,2021_May_18_1042,color_judgement_and_subjective_perception,2020.2.10,60.06465852373194,
0,0.35,testing,1000,1,,,,,,,,,0,0,0,0,,,,,11,3,47,0,1109.9001290790002,None,j,0.29949350499987304,1110.000078829,None,1109.399804362,1109.8166586389998,1110.3168854249998,1110.8169458040002,1110.3168854249998,None,0,0,32,None,None,5,001,exponential,bryg,0.35-0.75,2021_May_18_1042,color_judgement_and_subjective_perception,2020.2.10,60.06465852373194,
3,0.35,testing,1000,1,,,,,,,,,0,0,0,0,,,,,12,0,48,3,1111.416900748,None,k,0.6867722009999397,1111.5168273519998,None,1110.9166117720001,1111.333517604,1112.235221379,1112.718084816,1112.235221379,None,0,38,0,None,None,5,001,exponential,bryg,0.35-0.75,2021_May_18_1042,color_judgement_and_subjective_perception,2020.2.10,60.06465852373194,
1,0.35,testing,1000,1,,,,,,,,,0,0,0,0,,,,,12,1,49,1,1113.3180723169999,None,f,0.7377257619998545,1113.417889841,None,1112.817774181,1113.234508054,1114.184556882,1114.6849266989998,1114.184556882,None,28,9,0,None,None,5,001,exponential,bryg,0.35-0.75,2021_May_18_1042,color_judgement_and_subjective_perception,2020.2.10,60.06465852373194,
0,0.35,testing,1000,1,,,,,,,,,0,0,0,0,,,,,12,2,50,0,1115.284992729,None,d,0.7704483709999295,1115.3851200039999,None,1114.7846850269998,1115.2016811849999,1116.184884713,1116.6851002489998,1116.184884713,None,0,0,30,None,None,5,001,exponential,bryg,0.35-0.75,2021_May_18_1042,color_judgement_and_subjective_perception,2020.2.10,60.06465852373194,
3,0.35,testing,1000,1,,,,,,,,,0,0,0,0,,,,,12,3,51,3,1117.2853413550001,None,k,0.8262192749998576,1117.385372542,None,1116.784923013,1117.2019092340001,1118.236095804,1118.736203649,1118.236095804,None,0,36,0,None,None,5,001,exponential,bryg,0.35-0.75,2021_May_18_1042,color_judgement_and_subjective_perception,2020.2.10,60.06465852373194,
2,0.35,testing,1000,1,,,,,,,,,0,0,0,0,,,,,13,0,52,2,1119.336293414,None,k,0.823211062999917,1119.436399196,None,1118.8361688599998,1119.252913403,1120.28795382,1120.7865671620002,1120.28795382,None,31,31,0,None,None,5,001,exponential,bryg,0.35-0.75,2021_May_18_1042,color_judgement_and_subjective_perception,2020.2.10,60.06465852373194,
0,0.35,testing,1000,1,,,,,,,,,0,0,0,0,,,,,13,1,53,0,1121.386655797,None,d,0.7328184299999521,1121.4867525290001,None,1120.886344949,1121.3033386880002,1122.2387992489998,1122.7210208779998,1122.2387992489998,None,0,0,26,None,None,5,001,exponential,bryg,0.35-0.75,2021_May_18_1042,color_judgement_and_subjective_perception,2020.2.10,60.06465852373194,
3,0.35,testing,1000,1,,,,,,,,,0,0,0,0,,,,,13,2,54,3,1123.321131321,None,d,0.7425093370000013,1123.4210786990002,None,1122.8207592620001,1123.237749127,1124.189289259,1124.688035794,1124.189289259,None,0,32,0,None,None,5,001,exponential,bryg,0.35-0.75,2021_May_18_1042,color_judgement_and_subjective_perception,2020.2.10,60.06465852373194,
1,0.35,testing,1000,1,,,,,,,,,0,0,0,0,,,,,13,3,55,1,1125.288151545,None,None,-1,1125.3883276430001,None,1124.787752526,1125.2048290090002,1126.305176235,1126.8049217510002,1126.305176235,None,21,7,0,None,None,5,001,exponential,bryg,0.35-0.75,2021_May_18_1042,color_judgement_and_subjective_perception,2020.2.10,60.06465852373194,
1,0.35,testing,1000,1,,,,,,,,,0,0,0,0,,,,,14,0,56,1,1127.405110096,None,d,0.6671185140000944,1127.496465311,None,1126.904920601,1127.3218936150001,1128.1911361379998,1128.689333508,1128.1911361379998,None,21,7,0,None,None,5,001,exponential,bryg,0.35-0.75,2021_May_18_1042,color_judgement_and_subjective_perception,2020.2.10,60.06465852373194,
1,0.35,testing,1000,1,,,,,,,,,0,0,0,0,,,,,14,1,57,1,1129.289711759,None,j,0.4221611129999019,1129.3894260920001,None,1128.789040603,1129.2060728779998,1129.8394833920001,1130.3397045460001,1129.8394833920001,None,23,8,0,None,None,5,001,exponential,bryg,0.35-0.75,2021_May_18_1042,color_judgement_and_subjective_perception,2020.2.10,60.06465852373194,
0,0.35,testing,1000,1,,,,,,,,,0,0,0,0,,,,,14,2,58,0,1130.9397033609998,None,f,0.5958601920001456,1131.039744325,None,1130.4396091849999,1130.856369533,1131.656510324,1132.156505852,1131.656510324,None,0,0,26,None,None,5,001,exponential,bryg,0.35-0.75,2021_May_18_1042,color_judgement_and_subjective_perception,2020.2.10,60.06465852373194,
3,0.35,testing,1000,1,,,,,,,,,0,0,0,0,,,,,14,3,59,3,1132.740975447,None,j,0.8266208420000112,1132.8409753279998,None,1132.2564336579999,1132.657496105,1133.690818658,1134.1911585899998,1133.690818658,None,0,34,0,None,None,5,001,exponential,bryg,0.35-0.75,2021_May_18_1042,color_judgement_and_subjective_perception,2020.2.10,60.06465852373194,
3,0.35,testing,1000,1,,,,,,,,,0,0,0,0,,,,,15,0,60,3,1134.791200018,None,k,0.688404453999965,1134.891200298,None,1134.2908219289998,1134.7078819059998,1135.609614091,1136.1080927459998,1135.609614091,None,0,36,0,None,None,5,001,exponential,bryg,0.35-0.75,2021_May_18_1042,color_judgement_and_subjective_perception,2020.2.10,60.06465852373194,
2,0.35,testing,1000,1,,,,,,,,,0,0,0,0,,,,,15,1,61,2,1136.7082090449999,None,f,0.6835836160000781,1136.8080372979998,None,1136.2078100600002,1136.62475972,1137.5173109759999,1138.009163097,1137.5173109759999,None,33,33,0,None,None,5,001,exponential,bryg,0.35-0.75,2021_May_18_1042,color_judgement_and_subjective_perception,2020.2.10,60.06465852373194,
3,0.35,testing,1000,1,,,,,,,,,0,0,0,0,,,,,15,2,62,3,1138.6091329729998,None,j,0.8464727450000282,1138.709131228,None,1138.1089457899998,1138.525779692,1139.575906982,1140.076043509,1139.575906982,None,0,35,0,None,None,5,001,exponential,bryg,0.35-0.75,2021_May_18_1042,color_judgement_and_subjective_perception,2020.2.10,60.06465852373194,
2,0.35,testing,1000,1,,,,,,,,,0,0,0,0,,,,,15,3,63,2,1140.6762003879999,None,k,0.7554216389999056,1140.7761876190002,None,1140.1760289620001,1140.592888398,1141.5594526260002,1142.059730258,1141.5594526260002,None,36,36,0,None,None,5,001,exponential,bryg,0.35-0.75,2021_May_18_1042,color_judgement_and_subjective_perception,2020.2.10,60.06465852373194,
1,0.35,testing,1000,1,,,,,,,,,0,0,0,0,,,,,16,0,64,1,1142.6440162459999,None,d,0.8115353970001706,1142.744070541,None,1142.1596200879999,1142.5608048049999,1143.577275486,1144.077611141,1143.577275486,None,29,10,0,None,None,5,001,exponential,bryg,0.35-0.75,2021_May_18_1042,color_judgement_and_subjective_perception,2020.2.10,60.06465852373194,
1,0.35,testing,1000,1,,,,,,,,,0,0,0,0,,,,,16,1,65,1,1144.6776808939999,None,None,-1,1144.7777135339998,None,1144.177301832,1144.594185673,1145.695106747,1146.194593017,1145.695106747,None,31,10,0,None,None,5,001,exponential,bryg,0.35-0.75,2021_May_18_1042,color_judgement_and_subjective_perception,2020.2.10,60.06465852373194,
2,0.35,testing,1000,1,,,,,,,,,0,0,0,0,,,,,16,2,66,2,1146.7948275560002,None,k,0.7968032789999597,1146.8947808060002,None,1146.2943859450002,1146.711241984,1147.713815227,1148.212263128,1147.713815227,None,40,40,0,None,None,5,001,exponential,bryg,0.35-0.75,2021_May_18_1042,color_judgement_and_subjective_perception,2020.2.10,60.06465852373194,
2,0.35,testing,1000,1,,,,,,,,,0,0,0,0,,,,,16,3,67,2,1148.812414301,None,j,0.7951415439999892,1148.912458534,None,1148.31207081,1148.729123016,1149.730815596,1150.2293453920001,1149.730815596,None,42,42,0,None,None,5,001,exponential,bryg,0.35-0.75,2021_May_18_1042,color_judgement_and_subjective_perception,2020.2.10,60.06465852373194,
0,0.35,testing,1000,1,,,,,,,,,0,0,0,0,,,,,17,0,68,0,1150.829556613,None,d,0.882152632000043,1150.9293787759998,None,1150.329146909,1150.7460606109998,1151.8297396130001,1152.3295879900002,1151.8297396130001,None,0,0,33,None,None,5,001,exponential,bryg,0.35-0.75,2021_May_18_1042,color_judgement_and_subjective_perception,2020.2.10,60.06465852373194,
3,0.35,testing,1000,1,,,,,,,,,0,0,0,0,,,,,17,1,69,3,1152.9140417849999,None,k,0.7497360469999421,1153.0138531070002,None,1152.4294400039998,1152.8306606380002,1153.78071283,1154.280708837,1153.78071283,None,0,41,0,None,None,5,001,exponential,bryg,0.35-0.75,2021_May_18_1042,color_judgement_and_subjective_perception,2020.2.10,60.06465852373194,
0,0.35,testing,1000,1,,,,,,,,,0,0,0,0,,,,,17,2,70,0,1154.8810021589998,None,j,0.5666065699999763,1154.980946991,None,1154.3805968020001,1154.797609622,1155.566575017,1156.064303827,1155.566575017,None,0,0,30,None,None,5,001,exponential,bryg,0.35-0.75,2021_May_18_1042,color_judgement_and_subjective_perception,2020.2.10,60.06465852373194,
2,0.35,testing,1000,1,,,,,,,,,0,0,0,0,,,,,17,3,71,2,1156.664444824,None,k,0.8150814979999268,1156.76451822,None,1156.164099255,1156.581232653,1157.598763391,1158.098755337,1157.598763391,None,39,39,0,None,None,5,001,exponential,bryg,0.35-0.75,2021_May_18_1042,color_judgement_and_subjective_perception,2020.2.10,60.06465852373194,
0,0.35,testing,1000,1,,,,,,,,,0,0,0,0,,,,,18,0,72,0,1158.6988096979999,None,d,0.7006658180000613,1158.79885035,None,1158.19856984,1158.61552566,1159.5342450120002,1160.03250032,1159.5342450120002,None,0,0,29,None,None,5,001,exponential,bryg,0.35-0.75,2021_May_18_1042,color_judgement_and_subjective_perception,2020.2.10,60.06465852373194,
3,0.35,testing,1000,1,,,,,,,,,0,0,0,0,,,,,18,1,73,3,1160.6325879249998,None,k,0.742961730000161,1160.73263817,None,1160.1324277519998,1160.549397747,1161.4992768010002,1161.999393574,1161.4992768010002,None,0,38,0,None,None,5,001,exponential,bryg,0.35-0.75,2021_May_18_1042,color_judgement_and_subjective_perception,2020.2.10,60.06465852373194,
1,0.35,testing,1000,1,,,,,,,,,0,0,0,0,,,,,18,2,74,1,1162.5838816290002,None,d,0.6798749550000593,1162.683722016,None,1162.0992314750001,1162.5075469849999,1163.3849882549998,1163.883744011,1163.3849882549998,None,31,10,0,None,None,5,001,exponential,bryg,0.35-0.75,2021_May_18_1042,color_judgement_and_subjective_perception,2020.2.10,60.06465852373194,
1,0.35,testing,1000,1,,,,,,,,,0,0,0,0,,,,,18,3,75,1,1164.483958631,None,f,0.7234399769999982,1164.5841190340002,None,1163.983617247,1164.4007129010001,1165.3357242719999,1165.8342030079998,1165.3357242719999,None,31,10,0,None,None,5,001,exponential,bryg,0.35-0.75,2021_May_18_1042,color_judgement_and_subjective_perception,2020.2.10,60.06465852373194,
