color_idx_ind,target_acc,mode,response_deadline,block_number,trials_training.thisRepN,trials_training.thisTrialN,trials_training.thisN,trials_training.thisIndex,trials_training_deadline.thisRepN,trials_training_deadline.thisTrialN,trials_training_deadline.thisN,trials_training_deadline.thisIndex,blocks.thisRepN,blocks.thisTrialN,blocks.thisN,blocks.thisIndex,trials_staircase.thisRepN,trials_staircase.thisTrialN,trials_staircase.thisN,trials_staircase.thisIndex,trials.thisRepN,trials.thisTrialN,trials.thisN,trials.thisIndex,stimulus_ind.started,stimulus_ind.stopped,key_resp_ind.keys,key_resp_ind.rt,key_resp_ind.started,key_resp_ind.stopped,fixation_cross_1_ind.started,fixation_cross_1_ind.stopped,text.started,text.stopped,dummy_text.started,dummy_text.stopped,stim_ind_color_rgb_r,stim_ind_color_rgb_g,stim_ind_color_rgb_b,text_break_block.started,text_break_block.stopped,participant,session,accuracy_weighting,color_mapping,block_difficulties,date,expName,psychopyVersion,frameRate,
0,0.9,training,1000000000000,,0,0,0,0,,,,,,,,,,,,,,,,,69.74918072999935,None,f,2.8126581650030857,69.84914993599887,None,69.25176759199894,69.66579247099799,72.68488017399795,73.18273630699696,72.68488017399795,None,,,,,,10,001,exponential,gyrb,0.75-0.35,2021_May_19_1045,color_judgement_and_subjective_perception,2020.2.10,60.021118070202796,
1,0.9,training,1000000000000,,0,1,1,1,,,,,,,,,,,,,,,,,73.767229588997,None,f,7.314660845000617,73.86720749199958,None,73.26703055799953,73.68390477799767,81.20457918199827,81.70283516599739,81.20457918199827,None,,,,,,10,001,exponential,gyrb,0.75-0.35,2021_May_19_1045,color_judgement_and_subjective_perception,2020.2.10,60.021118070202796,
0,0.9,training,1000000000000,,0,2,2,2,,,,,,,,,,,,,,,,,82.30286401899866,None,d,5.378985961000581,82.40281587400023,None,81.80268781799896,82.21953015199688,87.80437004099804,88.28857203899679,87.80437004099804,None,,,,,,10,001,exponential,gyrb,0.75-0.35,2021_May_19_1045,color_judgement_and_subjective_perception,2020.2.10,60.021118070202796,
2,0.9,training,1000000000000,,0,3,3,3,,,,,,,,,,,,,,,,,88.88873947899992,None,j,1.8970178859999578,88.988800051,None,88.38861012099733,88.8053035869998,90.90552787199704,91.40566579999722,90.90552787199704,None,,,,,,10,001,exponential,gyrb,0.75-0.35,2021_May_19_1045,color_judgement_and_subjective_perception,2020.2.10,60.021118070202796,
0,0.9,training,1000000000000,,0,4,4,4,,,,,,,,,,,,,,,,,92.00571652500003,None,d,2.332361007000145,92.10550432299715,None,91.50544407699999,91.92230720799853,94.4571048129983,94.95703804599907,94.4571048129983,None,,,,,,10,001,exponential,gyrb,0.75-0.35,2021_May_19_1045,color_judgement_and_subjective_perception,2020.2.10,60.021118070202796,
2,0.9,training,1000000000000,,0,5,5,5,,,,,,,,,,,,,,,,,95.55727811499673,None,j,1.5005666719989676,95.65724936299739,None,95.05690961099754,95.47388347299784,97.19063960600033,97.69111100299779,97.19063960600033,None,,,,,,10,001,exponential,gyrb,0.75-0.35,2021_May_19_1045,color_judgement_and_subjective_perception,2020.2.10,60.021118070202796,
1,0.9,training,1000000000000,,0,6,6,6,,,,,,,,,,,,,,,,,98.27500010899894,None,f,15.950706002997322,98.37507109299986,None,97.79065455899763,98.20614112299882,114.34639819899894,114.84659294799712,114.34639819899894,None,,,,,,10,001,exponential,gyrb,0.75-0.35,2021_May_19_1045,color_judgement_and_subjective_perception,2020.2.10,60.021118070202796,
3,0.9,training,1000000000000,,0,7,7,7,,,,,,,,,,,,,,,,,115.44669659299689,None,k,1.3872017809990211,115.54666889099826,None,114.94647086799887,115.36332631199912,116.96362165399842,117.46357071099919,116.96362165399842,None,,,,,,10,001,exponential,gyrb,0.75-0.35,2021_May_19_1045,color_judgement_and_subjective_perception,2020.2.10,60.021118070202796,
1,0.9,training,1000000000000,,0,8,8,8,,,,,,,,,,,,,,,,,118.06379840199952,None,f,1.8259394300002896,118.16385475099742,None,117.5638306189976,117.98055110299902,120.01484650400016,120.51491000299939,120.01484650400016,None,,,,,,10,001,exponential,gyrb,0.75-0.35,2021_May_19_1045,color_judgement_and_subjective_perception,2020.2.10,60.021118070202796,
3,0.9,training,1000000000000,,0,9,9,9,,,,,,,,,,,,,,,,,121.11506490199827,None,k,2.070751980998466,121.21510854199732,None,120.61489847099801,121.03178690999994,123.31620256599854,123.81642097099757,123.31620256599854,None,,,,,,10,001,exponential,gyrb,0.75-0.35,2021_May_19_1045,color_judgement_and_subjective_perception,2020.2.10,60.021118070202796,
1,0.9,training,1000000000000,,0,10,10,10,,,,,,,,,,,,,,,,,124.41663299900029,None,f,12.553315486999054,124.51652361099696,None,123.91628831499838,124.33316032399671,137.08659354399788,137.58666856799755,137.08659354399788,None,,,,,,10,001,exponential,gyrb,0.75-0.35,2021_May_19_1045,color_judgement_and_subjective_perception,2020.2.10,60.021118070202796,
2,0.9,training,1000000000000,,0,11,11,11,,,,,,,,,,,,,,,,,138.18683569999848,None,j,1.294581758997083,138.27116847899742,None,137.68673701700027,138.10361405599906,139.5878963699979,140.0881225919984,139.5878963699979,None,,,,,,10,001,exponential,gyrb,0.75-0.35,2021_May_19_1045,color_judgement_and_subjective_perception,2020.2.10,60.021118070202796,
0,0.9,training,1000000000000,,0,12,12,12,,,,,,,,,,,,,,,,,140.68802676199994,None,d,2.4097768169995106,140.78807264499846,None,140.18803003299763,140.60473168399767,143.220327351999,143.7060394629989,143.220327351999,None,,,,,,10,001,exponential,gyrb,0.75-0.35,2021_May_19_1045,color_judgement_and_subjective_perception,2020.2.10,60.021118070202796,
2,0.9,training,1000000000000,,0,13,13,13,,,,,,,,,,,,,,,,,144.30611647499973,None,j,42.92751938799847,144.4063467119995,None,143.8060374529996,144.22295650999877,187.3527297579967,187.7937440200003,187.3527297579967,None,,,,,,10,001,exponential,gyrb,0.75-0.35,2021_May_19_1045,color_judgement_and_subjective_perception,2020.2.10,60.021118070202796,
3,0.9,training,1000000000000,,0,14,14,14,,,,,,,,,,,,,,,,,188.16943683999853,None,k,0.9438473949994659,188.2539070649982,None,187.85126172599848,188.08725933099777,189.22065024899712,189.72068462599782,189.22065024899712,None,,,,,,10,001,exponential,gyrb,0.75-0.35,2021_May_19_1045,color_judgement_and_subjective_perception,2020.2.10,60.021118070202796,
2,0.9,training,1000000000000,,0,15,15,15,,,,,,,,,,,,,,,,,190.32079804000023,None,j,0.881038504998287,190.42082757800017,None,189.82048020899674,190.2373540749977,191.32097465100014,191.8209587780002,191.32097465100014,None,,,,,,10,001,exponential,gyrb,0.75-0.35,2021_May_19_1045,color_judgement_and_subjective_perception,2020.2.10,60.021118070202796,
3,0.9,training,1000000000000,,0,16,16,16,,,,,,,,,,,,,,,,,192.42105543899743,None,k,1.1007568029999675,192.52109607999955,None,191.92091196899855,192.33768724699985,193.63872497400007,194.13883533699845,193.63872497400007,None,,,,,,10,001,exponential,gyrb,0.75-0.35,2021_May_19_1045,color_judgement_and_subjective_perception,2020.2.10,60.021118070202796,
1,0.9,training,1000000000000,,0,17,17,17,,,,,,,,,,,,,,,,,194.73879291699996,None,f,1.3509928989988111,194.83880692699677,None,194.2388035240001,194.6555542299975,196.22234735299935,196.7224853569969,196.22234735299935,None,,,,,,10,001,exponential,gyrb,0.75-0.35,2021_May_19_1045,color_judgement_and_subjective_perception,2020.2.10,60.021118070202796,
0,0.9,training,1000000000000,,0,18,18,18,,,,,,,,,,,,,,,,,197.32266245400024,None,d,0.9671406880006543,197.42269335699893,None,196.82249929599857,197.23917255599736,198.4068548260002,198.90697191299842,198.4068548260002,None,,,,,,10,001,exponential,gyrb,0.75-0.35,2021_May_19_1045,color_judgement_and_subjective_perception,2020.2.10,60.021118070202796,
3,0.9,training,1000000000000,,0,19,19,19,,,,,,,,,,,,,,,,,199.50699002799956,None,k,1.50279807699917,199.60704579999947,None,199.0069680689994,199.42371300299783,201.1407244669972,201.64082361799956,201.1407244669972,None,,,,,,10,001,exponential,gyrb,0.75-0.35,2021_May_19_1045,color_judgement_and_subjective_perception,2020.2.10,60.021118070202796,
1,0.9,training,1000000000000,,0,20,20,20,,,,,,,,,,,,,,,,,202.24084185799802,None,f,1.113021868000942,202.34087634499883,None,201.740652141998,202.15729355700023,203.47500359399783,203.97524965499906,203.47500359399783,None,,,,,,10,001,exponential,gyrb,0.75-0.35,2021_May_19_1045,color_judgement_and_subjective_perception,2020.2.10,60.021118070202796,
2,0.9,training,1000000000000,,0,21,21,21,,,,,,,,,,,,,,,,,204.57526240399966,None,j,1.1785592009982793,204.6753068179969,None,204.0750809429992,204.49201730099958,205.87545213799967,206.37569851799708,205.87545213799967,None,,,,,,10,001,exponential,gyrb,0.75-0.35,2021_May_19_1045,color_judgement_and_subjective_perception,2020.2.10,60.021118070202796,
1,0.9,training,1000000000000,,0,22,22,22,,,,,,,,,,,,,,,,,206.97562706699682,None,f,2.9701782949996414,207.07566908899753,None,206.47577846399872,206.89240191599674,210.07691184799842,210.57723074099704,210.07691184799842,None,,,,,,10,001,exponential,gyrb,0.75-0.35,2021_May_19_1045,color_judgement_and_subjective_perception,2020.2.10,60.021118070202796,
0,0.9,training,1000000000000,,0,23,23,23,,,,,,,,,,,,,,,,,211.17730252499678,None,d,0.7684020960005,211.2774176769999,None,210.67716118199678,211.0937398879978,212.07722637400002,212.57748571499906,212.07722637400002,None,,,,,,10,001,exponential,gyrb,0.75-0.35,2021_May_19_1045,color_judgement_and_subjective_perception,2020.2.10,60.021118070202796,
1,0.9,training,1000000000000,,0,24,24,24,,,,,,,,,,,,,,,,,213.17748482099705,None,f,0.7679711100026907,213.2618630649995,None,212.67734324299818,213.09397510199778,214.0615683979995,214.56166773099903,214.0615683979995,None,,,,,,10,001,exponential,gyrb,0.75-0.35,2021_May_19_1045,color_judgement_and_subjective_perception,2020.2.10,60.021118070202796,
2,0.9,training,1000000000000,,0,25,25,25,,,,,,,,,,,,,,,,,215.1619332809969,None,j,0.9760656239996024,215.2618050759993,None,214.66171637099978,215.07863526299843,216.2619444999982,216.76211473500007,216.2619444999982,None,,,,,,10,001,exponential,gyrb,0.75-0.35,2021_May_19_1045,color_judgement_and_subjective_perception,2020.2.10,60.021118070202796,
3,0.9,training,1000000000000,,0,26,26,26,,,,,,,,,,,,,,,,,217.3622093649974,None,k,0.9194780200014065,217.46236864099774,None,216.86204809799892,217.27891272399938,218.4131894839993,218.91335106599945,218.4131894839993,None,,,,,,10,001,exponential,gyrb,0.75-0.35,2021_May_19_1045,color_judgement_and_subjective_perception,2020.2.10,60.021118070202796,
0,0.9,training,1000000000000,,0,27,27,27,,,,,,,,,,,,,,,,,219.51332631199693,None,d,0.784588791000715,219.61323678999906,None,219.01327506699818,219.42997277199902,220.43012068199823,220.93031601199982,220.43012068199823,None,,,,,,10,001,exponential,gyrb,0.75-0.35,2021_May_19_1045,color_judgement_and_subjective_perception,2020.2.10,60.021118070202796,
3,0.9,training,1000000000000,,0,28,28,28,,,,,,,,,,,,,,,,,221.53030734599815,None,k,0.7114820210008475,221.63039581799967,None,221.0303154969988,221.44699482599754,222.36356662699836,222.86394126499727,222.36356662699836,None,,,,,,10,001,exponential,gyrb,0.75-0.35,2021_May_19_1045,color_judgement_and_subjective_perception,2020.2.10,60.021118070202796,
0,0.9,training,1000000000000,,0,29,29,29,,,,,,,,,,,,,,,,,223.44831980099843,None,d,0.9615805579996959,223.54827652099993,None,222.96394913699987,223.36496916800024,224.53134877199773,225.03171545799705,224.53134877199773,None,,,,,,10,001,exponential,gyrb,0.75-0.35,2021_May_19_1045,color_judgement_and_subjective_perception,2020.2.10,60.021118070202796,
3,0.9,training,1000000000000,,0,30,30,30,,,,,,,,,,,,,,,,,225.63184274800005,None,k,0.7139734379998117,225.73190192999755,None,225.1317122829969,225.54854002999855,226.46527008900011,226.96530197599714,226.46527008900011,None,,,,,,10,001,exponential,gyrb,0.75-0.35,2021_May_19_1045,color_judgement_and_subjective_perception,2020.2.10,60.021118070202796,
2,0.9,training,1000000000000,,0,31,31,31,,,,,,,,,,,,,,,,,227.56539930399958,None,j,1.0203042839966656,227.66552805599713,None,227.06528803699985,227.48223627399784,228.71644774899687,229.21650583799783,228.71644774899687,None,,,,,,10,001,exponential,gyrb,0.75-0.35,2021_May_19_1045,color_judgement_and_subjective_perception,2020.2.10,60.021118070202796,
2,0.9,training,1000,,,,,,0,0,0,0,,,,,,,,,,,,,240.15321367599972,None,None,-1,240.2530367679974,None,239.66747216099975,240.06974170299873,241.1707434739983,241.66996589199698,241.1707434739983,None,,,,,,10,001,exponential,gyrb,0.75-0.35,2021_May_19_1045,color_judgement_and_subjective_perception,2020.2.10,60.021118070202796,
1,0.9,training,1000,,,,,,0,1,1,1,,,,,,,,,,,,,242.27004933900025,None,d,0.45180478299880633,242.37007636299677,None,241.7699821069982,242.18681360999835,242.85340948799785,243.33784035799908,242.85340948799785,None,,,,,,10,001,exponential,gyrb,0.75-0.35,2021_May_19_1045,color_judgement_and_subjective_perception,2020.2.10,60.021118070202796,
3,0.9,training,1000,,,,,,0,2,2,2,,,,,,,,,,,,,243.93789290199857,None,j,0.5199814079969656,244.03789245499866,None,243.4376881979988,243.85456095299742,244.58787484599816,245.08813104699948,244.58787484599816,None,,,,,,10,001,exponential,gyrb,0.75-0.35,2021_May_19_1045,color_judgement_and_subjective_perception,2020.2.10,60.021118070202796,
0,0.9,training,1000,,,,,,0,3,3,3,,,,,,,,,,,,,245.68824215399945,None,d,0.585414639001101,245.78840151300028,None,245.1880533329968,245.604883521999,246.4047124259996,246.90511937100018,246.4047124259996,None,,,,,,10,001,exponential,gyrb,0.75-0.35,2021_May_19_1045,color_judgement_and_subjective_perception,2020.2.10,60.021118070202796,
2,0.9,training,1000,,,,,,0,4,4,4,,,,,,,,,,,,,247.5052073179977,None,f,0.5206700330018066,247.60517325399996,None,247.0048771949987,247.42171895099818,248.15494344899707,248.63954326800012,248.15494344899707,None,,,,,,10,001,exponential,gyrb,0.75-0.35,2021_May_19_1045,color_judgement_and_subjective_perception,2020.2.10,60.021118070202796,
3,0.9,training,1000,,,,,,0,5,5,5,,,,,,,,,,,,,249.23948951999773,None,k,0.5224275299988221,249.339454216999,None,248.7394834079969,249.15630021899779,249.88946408799893,250.38972289499725,249.88946408799893,None,,,,,,10,001,exponential,gyrb,0.75-0.35,2021_May_19_1045,color_judgement_and_subjective_perception,2020.2.10,60.021118070202796,
2,0.9,training,1000,,,,,,0,6,6,6,,,,,,,,,,,,,250.98983776000023,None,d,0.5080424810003024,251.0898427539978,None,250.48964925499968,250.906487283999,251.62300721499923,252.1233677759992,251.62300721499923,None,,,,,,10,001,exponential,gyrb,0.75-0.35,2021_May_19_1045,color_judgement_and_subjective_perception,2020.2.10,60.021118070202796,
3,0.9,training,1000,,,,,,0,7,7,7,,,,,,,,,,,,,252.72349451699847,None,k,0.5105047819997708,252.82336355999723,None,252.22327807999682,252.64006352999786,253.35761634899973,253.8575032339977,253.35761634899973,None,,,,,,10,001,exponential,gyrb,0.75-0.35,2021_May_19_1045,color_judgement_and_subjective_perception,2020.2.10,60.021118070202796,
1,0.9,training,1000,,,,,,0,8,8,8,,,,,,,,,,,,,254.4576782889999,None,f,0.6001194929995108,254.55773589099772,None,253.95767928999703,254.37443964199701,255.17452496199985,255.6746818119973,255.17452496199985,None,,,,,,10,001,exponential,gyrb,0.75-0.35,2021_May_19_1045,color_judgement_and_subjective_perception,2020.2.10,60.021118070202796,
0,0.9,training,1000,,,,,,0,9,9,9,,,,,,,,,,,,,256.2750201059971,None,d,0.5431202010004199,256.37474094199933,None,255.77472245699755,256.1915609969983,256.94128889700005,257.4415928460003,256.94128889700005,None,,,,,,10,001,exponential,gyrb,0.75-0.35,2021_May_19_1045,color_judgement_and_subjective_perception,2020.2.10,60.021118070202796,
1,0.9,training,1000,,,,,,0,10,10,10,,,,,,,,,,,,,258.0417558729969,None,f,0.5280867559995386,258.1417357549981,None,257.54147162299705,257.95849385699694,258.6927506510001,259.19278371999826,258.6927506510001,None,,,,,,10,001,exponential,gyrb,0.75-0.35,2021_May_19_1045,color_judgement_and_subjective_perception,2020.2.10,60.021118070202796,
0,0.9,training,1000,,,,,,0,11,11,11,,,,,,,,,,,,,259.7928002259978,None,d,0.752891202999308,259.8929229369969,None,259.2926097359996,259.7093008649972,260.6761808939991,261.17663619099767,260.6761808939991,None,,,,,,10,001,exponential,gyrb,0.75-0.35,2021_May_19_1045,color_judgement_and_subjective_perception,2020.2.10,60.021118070202796,
3,0.9,training,1000,,,,,,0,12,12,12,,,,,,,,,,,,,261.77651704699747,None,k,0.465503171999444,261.8763948959968,None,261.2764246070001,261.6932026759969,262.35971934199915,262.85992686999816,262.35971934199915,None,,,,,,10,001,exponential,gyrb,0.75-0.35,2021_May_19_1045,color_judgement_and_subjective_perception,2020.2.10,60.021118070202796,
1,0.9,training,1000,,,,,,0,13,13,13,,,,,,,,,,,,,263.4442147560003,None,f,0.5256690489986795,263.5442037159992,None,262.9599144669992,263.3608660509999,264.09410268399733,264.5943979429976,264.09410268399733,None,,,,,,10,001,exponential,gyrb,0.75-0.35,2021_May_19_1045,color_judgement_and_subjective_perception,2020.2.10,60.021118070202796,
2,0.9,training,1000,,,,,,0,14,14,14,,,,,,,,,,,,,265.1943792949969,None,j,0.439323921000323,265.2945177499969,None,264.6940807539977,265.11105227299777,265.7611338159986,266.26116632799676,265.7611338159986,None,,,,,,10,001,exponential,gyrb,0.75-0.35,2021_May_19_1045,color_judgement_and_subjective_perception,2020.2.10,60.021118070202796,
3,0.9,training,1000,,,,,,0,15,15,15,,,,,,,,,,,,,266.8612977369994,None,k,0.49250341299921274,266.9613624809972,None,266.3611739299995,266.7780923649989,267.4779963539986,267.97828354599915,267.4779963539986,None,,,,,,10,001,exponential,gyrb,0.75-0.35,2021_May_19_1045,color_judgement_and_subjective_perception,2020.2.10,60.021118070202796,
1,0.9,training,1000,,,,,,0,16,16,16,,,,,,,,,,,,,268.5623802909977,None,f,0.5512373650017253,268.6625978069969,None,268.0779518579984,268.47911445599675,269.24575500399806,269.7458433069987,269.24575500399806,None,,,,,,10,001,exponential,gyrb,0.75-0.35,2021_May_19_1045,color_judgement_and_subjective_perception,2020.2.10,60.021118070202796,
3,0.9,training,1000,,,,,,0,17,17,17,,,,,,,,,,,,,270.34611965899967,None,k,0.4237957090008422,270.4460694059999,None,269.8458081309982,270.26255473799756,270.89604859799874,271.39632067399725,270.89604859799874,None,,,,,,10,001,exponential,gyrb,0.75-0.35,2021_May_19_1045,color_judgement_and_subjective_perception,2020.2.10,60.021118070202796,
0,0.9,training,1000,,,,,,0,18,18,18,,,,,,,,,,,,,271.99646025999755,None,d,0.5494134849977854,272.09642411099776,None,271.4960892099989,271.91288742199686,272.6629045339978,273.1631782899967,272.6629045339978,None,,,,,,10,001,exponential,gyrb,0.75-0.35,2021_May_19_1045,color_judgement_and_subjective_perception,2020.2.10,60.021118070202796,
2,0.9,training,1000,,,,,,0,19,19,19,,,,,,,,,,,,,273.7474690119998,None,j,0.5985264619994268,273.8473805089998,None,273.2617344209975,273.664187118,274.4640232549973,274.96419394999975,274.4640232549973,None,,,,,,10,001,exponential,gyrb,0.75-0.35,2021_May_19_1045,color_judgement_and_subjective_perception,2020.2.10,60.021118070202796,
3,0.9,training,1000,,,,,,0,20,20,20,,,,,,,,,,,,,275.56449912699827,None,k,0.4293591050009127,275.66449221199946,None,275.06440713399934,275.4810232669988,276.1143435729973,276.61455840899725,276.1143435729973,None,,,,,,10,001,exponential,gyrb,0.75-0.35,2021_May_19_1045,color_judgement_and_subjective_perception,2020.2.10,60.021118070202796,
0,0.9,training,1000,,,,,,0,21,21,21,,,,,,,,,,,,,277.21472318299857,None,f,0.5632832269984647,277.31459233699934,None,276.7143986049996,277.1310811069998,277.89776266099943,278.38230755599943,277.89776266099943,None,,,,,,10,001,exponential,gyrb,0.75-0.35,2021_May_19_1045,color_judgement_and_subjective_perception,2020.2.10,60.021118070202796,
1,0.9,training,1000,,,,,,0,22,22,22,,,,,,,,,,,,,278.982586307,None,f,0.6673648849973688,279.0823951379971,None,278.4824881120003,278.8990087819984,279.78216571699886,280.28261272399686,279.78216571699886,None,,,,,,10,001,exponential,gyrb,0.75-0.35,2021_May_19_1045,color_judgement_and_subjective_perception,2020.2.10,60.021118070202796,
2,0.9,training,1000,,,,,,0,23,23,23,,,,,,,,,,,,,280.88273518200003,None,j,0.5349959100021806,280.9828682829975,None,280.38268815599804,280.79936092599746,281.5492060159995,282.0494396019967,281.5492060159995,None,,,,,,10,001,exponential,gyrb,0.75-0.35,2021_May_19_1045,color_judgement_and_subjective_perception,2020.2.10,60.021118070202796,
0,0.9,training,1000,,,,,,0,24,24,24,,,,,,,,,,,,,282.64955276499677,None,d,0.5282208629978413,282.74956760699934,None,282.14948947899757,282.566064699,283.3002800389986,283.8004780529991,283.3002800389986,None,,,,,,10,001,exponential,gyrb,0.75-0.35,2021_May_19_1045,color_judgement_and_subjective_perception,2020.2.10,60.021118070202796,
1,0.9,training,1000,,,,,,0,25,25,25,,,,,,,,,,,,,284.40058175399827,None,f,0.47333968300154083,284.50051139399875,None,283.90054122400034,284.31721629899766,285.00068383599864,285.50094540899954,285.00068383599864,None,,,,,,10,001,exponential,gyrb,0.75-0.35,2021_May_19_1045,color_judgement_and_subjective_perception,2020.2.10,60.021118070202796,
2,0.9,training,1000,,,,,,0,26,26,26,,,,,,,,,,,,,286.10105435999867,None,j,0.5888030400019488,286.201038924999,None,285.6009187009986,286.01762893999694,286.81751933899795,287.31757317899974,286.81751933899795,None,,,,,,10,001,exponential,gyrb,0.75-0.35,2021_May_19_1045,color_judgement_and_subjective_perception,2020.2.10,60.021118070202796,
1,0.9,training,1000,,,,,,0,27,27,27,,,,,,,,,,,,,287.917821731,None,f,0.5401023699996585,288.0177788330002,None,287.41762742199717,287.83450620099757,288.5854494790001,289.08540411599824,288.5854494790001,None,,,,,,10,001,exponential,gyrb,0.75-0.35,2021_May_19_1045,color_judgement_and_subjective_perception,2020.2.10,60.021118070202796,
3,0.9,training,1000,,,,,,0,28,28,28,,,,,,,,,,,,,289.68545572499715,None,k,0.5242565750013455,289.78558987299766,None,289.18541091599764,289.6023053989993,290.3357134079997,290.83596810299787,290.3357134079997,None,,,,,,10,001,exponential,gyrb,0.75-0.35,2021_May_19_1045,color_judgement_and_subjective_perception,2020.2.10,60.021118070202796,
2,0.9,training,1000,,,,,,0,29,29,29,,,,,,,,,,,,,291.43594265799766,None,j,0.5819962340028724,291.53584268899795,None,290.9359172089971,291.35237183199933,292.13587296199694,292.6360421239988,292.13587296199694,None,,,,,,10,001,exponential,gyrb,0.75-0.35,2021_May_19_1045,color_judgement_and_subjective_perception,2020.2.10,60.021118070202796,
0,0.9,training,1000,,,,,,0,30,30,30,,,,,,,,,,,,,293.2361688659985,None,d,0.5893949009987409,293.32044685299843,None,292.7360892529978,293.15270983499795,293.9368519089985,294.4371985669968,293.9368519089985,None,,,,,,10,001,exponential,gyrb,0.75-0.35,2021_May_19_1045,color_judgement_and_subjective_perception,2020.2.10,60.021118070202796,
1,0.9,training,1000,,,,,,0,31,31,31,,,,,,,,,,,,,295.0371976389979,None,f,0.564553767999314,295.13732143299785,None,294.53709278199676,294.953891055,295.7207239069976,296.22075868699903,295.7207239069976,None,,,,,,10,001,exponential,gyrb,0.75-0.35,2021_May_19_1045,color_judgement_and_subjective_perception,2020.2.10,60.021118070202796,
0,0.9,training,1000,,,,,,0,32,32,32,,,,,,,,,,,,,296.82074411400026,None,f,0.4850545859990234,296.920820755,None,296.320659817,296.7375170819978,297.4373795779975,297.93774101399686,297.4373795779975,None,,,,,,10,001,exponential,gyrb,0.75-0.35,2021_May_19_1045,color_judgement_and_subjective_perception,2020.2.10,60.021118070202796,
2,0.9,training,1000,,,,,,0,33,33,33,,,,,,,,,,,,,298.5219699729969,None,j,0.5919885349976539,298.62186609499986,None,298.03760386999784,298.4385672419994,299.2384960849995,299.7388025839973,299.2384960849995,None,,,,,,10,001,exponential,gyrb,0.75-0.35,2021_May_19_1045,color_judgement_and_subjective_perception,2020.2.10,60.021118070202796,
3,0.9,training,1000,,,,,,0,34,34,34,,,,,,,,,,,,,300.3388826169976,None,k,0.33493558799818857,300.4389320329974,None,299.8386401559983,300.2555767249978,300.80548186799933,301.3057646319976,300.80548186799933,None,,,,,,10,001,exponential,gyrb,0.75-0.35,2021_May_19_1045,color_judgement_and_subjective_perception,2020.2.10,60.021118070202796,
1,0.9,training,1000,,,,,,0,35,35,35,,,,,,,,,,,,,301.9057853999984,None,f,0.6080914139965898,302.005785723999,None,301.40570293199926,301.82242567199864,302.6391245369996,303.13928680299796,302.6391245369996,None,,,,,,10,001,exponential,gyrb,0.75-0.35,2021_May_19_1045,color_judgement_and_subjective_perception,2020.2.10,60.021118070202796,
2,0.9,training,1000,,,,,,0,36,36,36,,,,,,,,,,,,,303.7236192549972,None,d,0.5741991419999977,303.82364529999904,None,303.2392944919993,303.6402553029984,304.4234209159986,304.9238597429976,304.4234209159986,None,,,,,,10,001,exponential,gyrb,0.75-0.35,2021_May_19_1045,color_judgement_and_subjective_perception,2020.2.10,60.021118070202796,
3,0.9,training,1000,,,,,,0,37,37,37,,,,,,,,,,,,,305.52395705699746,None,k,0.453948037000373,305.62388838999686,None,305.02366435599833,305.4404916289968,306.1070842659974,306.60728119600026,306.1070842659974,None,,,,,,10,001,exponential,gyrb,0.75-0.35,2021_May_19_1045,color_judgement_and_subjective_perception,2020.2.10,60.021118070202796,
1,0.9,training,1000,,,,,,0,38,38,38,,,,,,,,,,,,,307.2072594780002,None,f,0.594251203998283,307.3074958549987,None,306.707199698998,307.12417881799774,307.92409477099864,308.4084405249996,307.92409477099864,None,,,,,,10,001,exponential,gyrb,0.75-0.35,2021_May_19_1045,color_judgement_and_subjective_perception,2020.2.10,60.021118070202796,
0,0.9,training,1000,,,,,,0,39,39,39,,,,,,,,,,,,,309.00847178599724,None,d,0.553386595001939,309.1084654749975,None,308.50845413599745,308.92516975099716,309.6919044419992,310.19208258599974,309.6919044419992,None,,,,,,10,001,exponential,gyrb,0.75-0.35,2021_May_19_1045,color_judgement_and_subjective_perception,2020.2.10,60.021118070202796,
3,0.9,training,1000,,,,,,0,40,40,40,,,,,,,,,,,,,310.79226452199873,None,k,0.4255400779984484,310.8923248659994,None,310.2920424249969,310.70882562099723,311.34208380499695,311.8422956109971,311.34208380499695,None,,,,,,10,001,exponential,gyrb,0.75-0.35,2021_May_19_1045,color_judgement_and_subjective_perception,2020.2.10,60.021118070202796,
2,0.9,training,1000,,,,,,0,41,41,41,,,,,,,,,,,,,312.44244613699993,None,j,0.6075589959982608,312.5423231889981,None,311.9421990230003,312.3590885859994,313.17572099300014,313.6602741159986,313.17572099300014,None,,,,,,10,001,exponential,gyrb,0.75-0.35,2021_May_19_1045,color_judgement_and_subjective_perception,2020.2.10,60.021118070202796,
0,0.9,training,1000,,,,,,0,42,42,42,,,,,,,,,,,,,314.26029139099774,None,d,0.6857866370010015,314.36008314399805,None,313.76008334299695,314.1768403219976,315.0768530429996,315.577017186999,315.0768530429996,None,,,,,,10,001,exponential,gyrb,0.75-0.35,2021_May_19_1045,color_judgement_and_subjective_perception,2020.2.10,60.021118070202796,
2,0.9,training,1000,,,,,,0,43,43,43,,,,,,,,,,,,,316.17724650799937,None,j,0.5047893010014377,316.277118572998,None,315.6772042699995,316.09394163899924,316.8102971579974,317.3105609819977,316.8102971579974,None,,,,,,10,001,exponential,gyrb,0.75-0.35,2021_May_19_1045,color_judgement_and_subjective_perception,2020.2.10,60.021118070202796,
1,0.9,training,1000,,,,,,0,44,44,44,,,,,,,,,,,,,317.9106958359989,None,f,0.5791518060032104,318.0107062419993,None,317.4105741969979,317.827329214997,318.61172463899857,319.11167139399913,318.61172463899857,None,,,,,,10,001,exponential,gyrb,0.75-0.35,2021_May_19_1045,color_judgement_and_subjective_perception,2020.2.10,60.021118070202796,
0,0.9,training,1000,,,,,,0,45,45,45,,,,,,,,,,,,,319.71175243799735,None,d,0.5220516320005117,319.81182224999793,None,319.211560386997,319.62841060199935,320.3617414069995,320.8619008200003,320.3617414069995,None,,,,,,10,001,exponential,gyrb,0.75-0.35,2021_May_19_1045,color_judgement_and_subjective_perception,2020.2.10,60.021118070202796,
3,0.9,training,1000,,,,,,0,46,46,46,,,,,,,,,,,,,321.46193500299705,None,k,0.4198463389984681,321.56203010199897,None,320.96194777599885,321.37870624399875,322.0120743059997,322.5121238949978,322.0120743059997,None,,,,,,10,001,exponential,gyrb,0.75-0.35,2021_May_19_1045,color_judgement_and_subjective_perception,2020.2.10,60.021118070202796,
0,0.9,training,1000,,,,,,0,47,47,47,,,,,,,,,,,,,323.1123644319996,None,d,0.44167655400087824,323.21220343799723,None,322.6122692489989,323.02901224299785,323.67983620999803,324.1799721009993,323.67983620999803,None,,,,,,10,001,exponential,gyrb,0.75-0.35,2021_May_19_1045,color_judgement_and_subjective_perception,2020.2.10,60.021118070202796,
2,0.9,training,1000,,,,,,0,48,48,48,,,,,,,,,,,,,324.78005369899984,None,j,0.44580775999929756,324.88006206599675,None,324.27994569899965,324.696733159999,325.3467252519986,325.8469204840003,325.3467252519986,None,,,,,,10,001,exponential,gyrb,0.75-0.35,2021_May_19_1045,color_judgement_and_subjective_perception,2020.2.10,60.021118070202796,
3,0.9,training,1000,,,,,,0,49,49,49,,,,,,,,,,,,,326.4470522319971,None,j,0.45093099100267864,326.54690120099986,None,325.9468585229988,326.36362984399966,327.0300378899992,327.5304319749994,327.0300378899992,None,,,,,,10,001,exponential,gyrb,0.75-0.35,2021_May_19_1045,color_judgement_and_subjective_perception,2020.2.10,60.021118070202796,
0,0.9,training,1000,,,,,,0,50,50,50,,,,,,,,,,,,,328.1305405079984,None,d,0.6073663130009663,328.2305066409972,None,327.63045323299957,328.04706299999816,328.86460467099823,329.3648544509997,328.86460467099823,None,,,,,,10,001,exponential,gyrb,0.75-0.35,2021_May_19_1045,color_judgement_and_subjective_perception,2020.2.10,60.021118070202796,
2,0.9,training,1000,,,,,,0,51,51,51,,,,,,,,,,,,,329.96493187799933,None,f,0.5408956730025238,330.064988291997,None,329.4649236469995,329.88157984699865,330.631626397997,331.1319665209994,330.631626397997,None,,,,,,10,001,exponential,gyrb,0.75-0.35,2021_May_19_1045,color_judgement_and_subjective_perception,2020.2.10,60.021118070202796,
3,0.9,training,1000,,,,,,0,52,52,52,,,,,,,,,,,,,331.73193958999764,None,k,0.5338989669980947,331.8318920899983,None,331.23173418999795,331.64848958199946,332.3984430439996,332.8986522999985,332.3984430439996,None,,,,,,10,001,exponential,gyrb,0.75-0.35,2021_May_19_1045,color_judgement_and_subjective_perception,2020.2.10,60.021118070202796,
0,0.9,training,1000,,,,,,0,53,53,53,,,,,,,,,,,,,333.48303941299673,None,d,0.5906915100022161,333.5831855910001,None,332.9988638340001,333.39979671299807,334.19951606299946,334.6998917919991,334.19951606299946,None,,,,,,10,001,exponential,gyrb,0.75-0.35,2021_May_19_1045,color_judgement_and_subjective_perception,2020.2.10,60.021118070202796,
2,0.9,training,1000,,,,,,0,54,54,54,,,,,,,,,,,,,335.3000508519981,None,j,0.4218148990003101,335.40004674899683,None,334.7997639280002,335.2166325830003,335.849805681999,336.3502706709987,335.849805681999,None,,,,,,10,001,exponential,gyrb,0.75-0.35,2021_May_19_1045,color_judgement_and_subjective_perception,2020.2.10,60.021118070202796,
0,0.9,training,1000,,,,,,0,55,55,55,,,,,,,,,,,,,336.9500486279976,None,d,0.39569654099977924,337.0501702599977,None,336.4501604259967,336.8668086289981,337.46697435799797,337.96703802799675,337.46697435799797,None,,,,,,10,001,exponential,gyrb,0.75-0.35,2021_May_19_1045,color_judgement_and_subjective_perception,2020.2.10,60.021118070202796,
1,0.9,training,1000,,,,,,0,56,56,56,,,,,,,,,,,,,338.551251072,None,f,0.44238905599922873,338.65143493199866,None,338.0671875159969,338.4680221649978,339.1179998939988,339.6180062959975,339.1179998939988,None,,,,,,10,001,exponential,gyrb,0.75-0.35,2021_May_19_1045,color_judgement_and_subjective_perception,2020.2.10,60.021118070202796,
2,0.9,training,1000,,,,,,0,57,57,57,,,,,,,,,,,,,340.2182821039969,None,j,0.5596260569982405,340.3182162339981,None,339.7178684119972,340.13487581699883,340.9015870339972,341.401820021998,340.9015870339972,None,,,,,,10,001,exponential,gyrb,0.75-0.35,2021_May_19_1045,color_judgement_and_subjective_perception,2020.2.10,60.021118070202796,
0,0.9,training,1000,,,,,,0,58,58,58,,,,,,,,,,,,,342.00170258899743,None,f,0.5122068409982603,342.10167542499767,None,341.501641982999,341.9185024159997,342.63496452599793,343.13525841599767,342.63496452599793,None,,,,,,10,001,exponential,gyrb,0.75-0.35,2021_May_19_1045,color_judgement_and_subjective_perception,2020.2.10,60.021118070202796,
2,0.9,training,1000,,,,,,0,59,59,59,,,,,,,,,,,,,343.71941946699735,None,j,0.5382418949993735,343.8196060249975,None,343.2352623179977,343.6361675349981,344.38604422799835,344.8860796909976,344.38604422799835,None,,,,,,10,001,exponential,gyrb,0.75-0.35,2021_May_19_1045,color_judgement_and_subjective_perception,2020.2.10,60.021118070202796,
0,0.9,training,1000,,,,,,0,60,60,60,,,,,,,,,,,,,345.4865377859969,None,d,0.507392578998406,345.5864551220002,None,344.9863514949975,345.4031423279994,346.1197339609971,346.6200033779969,346.1197339609971,None,,,,,,10,001,exponential,gyrb,0.75-0.35,2021_May_19_1045,color_judgement_and_subjective_perception,2020.2.10,60.021118070202796,
0,0.9,training,1000,,,,,,0,61,61,61,,,,,,,,,,,,,347.2200473249977,None,f,0.6138286489986058,347.3200461279994,None,346.7199602889996,347.1368365849994,347.9534222729999,348.4377985279971,347.9534222729999,None,,,,,,10,001,exponential,gyrb,0.75-0.35,2021_May_19_1045,color_judgement_and_subjective_perception,2020.2.10,60.021118070202796,
2,0.9,training,1000,,,,,,0,62,62,62,,,,,,,,,,,,,349.03778890399917,None,j,0.5080097079990082,349.1378666370001,None,348.5376249369983,348.95443206100026,349.67099689799943,350.1712845969996,349.67099689799943,None,,,,,,10,001,exponential,gyrb,0.75-0.35,2021_May_19_1045,color_judgement_and_subjective_perception,2020.2.10,60.021118070202796,
1,0.9,training,1000,,,,,,0,63,63,63,,,,,,,,,,,,,350.771482205997,None,f,0.5583580749989778,350.87152219999916,None,350.2713017299975,350.6882652459972,351.4545286809989,351.9549255749989,351.4545286809989,None,,,,,,10,001,exponential,gyrb,0.75-0.35,2021_May_19_1045,color_judgement_and_subjective_perception,2020.2.10,60.021118070202796,
0,0.9,training,1000,,,,,,0,64,64,64,,,,,,,,,,,,,352.5548202829996,None,d,0.5347267229990393,352.6551298719969,None,352.05494424399876,352.47165702599887,353.22149453399834,353.7061337769992,353.22149453399834,None,,,,,,10,001,exponential,gyrb,0.75-0.35,2021_May_19_1045,color_judgement_and_subjective_perception,2020.2.10,60.021118070202796,
3,0.9,training,1000,,,,,,0,65,65,65,,,,,,,,,,,,,354.3060721109978,None,k,0.4156500569988566,354.4062288749992,None,353.80603195599906,354.2227985499994,354.8393049639999,355.339703919999,354.8393049639999,None,,,,,,10,001,exponential,gyrb,0.75-0.35,2021_May_19_1045,color_judgement_and_subjective_perception,2020.2.10,60.021118070202796,
0,0.9,training,1000,,,,,,0,66,66,66,,,,,,,,,,,,,355.93976076099716,None,d,0.462082157999248,356.0398246409968,None,355.43969755099897,355.8564605339998,356.5230315179979,357.0231188739999,356.5230315179979,None,,,,,,10,001,exponential,gyrb,0.75-0.35,2021_May_19_1045,color_judgement_and_subjective_perception,2020.2.10,60.021118070202796,
3,0.9,training,1000,,,,,,0,67,67,67,,,,,,,,,,,,,357.62327013899994,None,k,0.5306465310022759,357.72322187199825,None,357.1231197089983,357.539991423997,358.27318722400014,358.75770113399994,358.27318722400014,None,,,,,,10,001,exponential,gyrb,0.75-0.35,2021_May_19_1045,color_judgement_and_subjective_perception,2020.2.10,60.021118070202796,
1,0.9,training,1000,,,,,,0,68,68,68,,,,,,,,,,,,,359.3576787489983,None,f,0.44408188100351254,359.4576740929988,None,358.85755894199974,359.2743389339994,359.9242664819976,360.42475648099935,359.9242664819976,None,,,,,,10,001,exponential,gyrb,0.75-0.35,2021_May_19_1045,color_judgement_and_subjective_perception,2020.2.10,60.021118070202796,
1,0.9,training,1000,,,,,,0,69,69,69,,,,,,,,,,,,,361.0247385579969,None,f,0.7291426480005612,361.12472279099893,None,360.52457870599756,360.94131275199834,361.87473068799954,362.374814685998,361.87473068799954,None,,,,,,10,001,exponential,gyrb,0.75-0.35,2021_May_19_1045,color_judgement_and_subjective_perception,2020.2.10,60.021118070202796,
3,0.9,training,1000,,,,,,0,70,70,70,,,,,,,,,,,,,362.97498316699784,None,k,0.42688039100175956,363.0749786139968,None,362.47477373699803,362.8916621199969,363.52568059999976,364.0257337929979,363.52568059999976,None,,,,,,10,001,exponential,gyrb,0.75-0.35,2021_May_19_1045,color_judgement_and_subjective_perception,2020.2.10,60.021118070202796,
1,0.9,training,1000,,,,,,0,71,71,71,,,,,,,,,,,,,364.6259963989978,None,f,0.48784660199817154,364.7260074119986,None,364.12578838699847,364.54261343100006,365.2425015239969,365.74294368999836,365.2425015239969,None,,,,,,10,001,exponential,gyrb,0.75-0.35,2021_May_19_1045,color_judgement_and_subjective_perception,2020.2.10,60.021118070202796,
1,0.9,training,1000,,,,,,0,72,72,72,,,,,,,,,,,,,366.34285796999757,None,f,0.37884113999825786,366.4429555619972,None,365.8429126179981,366.25961872399785,366.8427144349989,367.3427624199976,366.8427144349989,None,,,,,,10,001,exponential,gyrb,0.75-0.35,2021_May_19_1045,color_judgement_and_subjective_perception,2020.2.10,60.021118070202796,
1,0.9,training,1000,,,,,,0,73,73,73,,,,,,,,,,,,,367.9427690949997,None,f,0.4668935209992924,368.0429517390003,None,367.44262730099945,367.8594345929996,368.52758983699823,369.0276021219979,368.52758983699823,None,,,,,,10,001,exponential,gyrb,0.75-0.35,2021_May_19_1045,color_judgement_and_subjective_perception,2020.2.10,60.021118070202796,
2,0.9,training,1000,,,,,,0,74,74,74,,,,,,,,,,,,,369.6274835719996,None,j,0.44620569700055057,369.72767954899973,None,369.12732533099916,369.5443259079984,370.19423607299905,370.6945222159993,370.19423607299905,None,,,,,,10,001,exponential,gyrb,0.75-0.35,2021_May_19_1045,color_judgement_and_subjective_perception,2020.2.10,60.021118070202796,
0,0.9,training,1000,,,,,,0,75,75,75,,,,,,,,,,,,,371.29456189600023,None,d,0.515288516999135,371.3945403029975,None,370.79453880299843,371.2112816529989,371.9278308639987,372.42808109699763,371.9278308639987,None,,,,,,10,001,exponential,gyrb,0.75-0.35,2021_May_19_1045,color_judgement_and_subjective_perception,2020.2.10,60.021118070202796,
3,0.9,training,1000,,,,,,0,76,76,76,,,,,,,,,,,,,373.02821540399964,None,k,0.3496818200001144,373.12817584000004,None,372.5279694899982,372.9447614159981,373.4956225329988,373.9957306260003,373.4956225329988,None,,,,,,10,001,exponential,gyrb,0.75-0.35,2021_May_19_1045,color_judgement_and_subjective_perception,2020.2.10,60.021118070202796,
3,0.9,training,1000,,,,,,0,77,77,77,,,,,,,,,,,,,374.59578568399957,None,k,0.6620097239974712,374.69586350399913,None,374.0957352810001,374.51246992099914,375.3792440319994,375.8794216739989,375.3792440319994,None,,,,,,10,001,exponential,gyrb,0.75-0.35,2021_May_19_1045,color_judgement_and_subjective_perception,2020.2.10,60.021118070202796,
1,0.9,training,1000,,,,,,0,78,78,78,,,,,,,,,,,,,376.4795131639985,None,f,0.6023798149981303,376.5794633400001,None,375.9795010839989,376.39618385099675,377.2126887799968,377.7129361569969,377.2126887799968,None,,,,,,10,001,exponential,gyrb,0.75-0.35,2021_May_19_1045,color_judgement_and_subjective_perception,2020.2.10,60.021118070202796,
3,0.9,training,1000,,,,,,0,79,79,79,,,,,,,,,,,,,378.3044450039997,None,k,0.4724827309983084,378.3974008019977,None,377.813086154998,378.229727214999,378.8970651839991,379.3973816689977,378.8970651839991,None,,,,,,10,001,exponential,gyrb,0.75-0.35,2021_May_19_1045,color_judgement_and_subjective_perception,2020.2.10,60.021118070202796,
0,0.9,training,1000,,,,,,0,80,80,80,,,,,,,,,,,,,379.99742777400024,None,d,0.6282728089972807,380.0975952539993,None,379.49736877599935,379.9141144979985,380.7476171849994,381.2477774509971,380.7476171849994,None,,,,,,10,001,exponential,gyrb,0.75-0.35,2021_May_19_1045,color_judgement_and_subjective_perception,2020.2.10,60.021118070202796,
3,0.9,training,1000,,,,,,0,81,81,81,,,,,,,,,,,,,381.8478840709977,None,k,0.3301024739994318,381.9477652709975,None,381.3475191559992,381.764412706998,382.2978122869972,382.7978834789974,382.2978122869972,None,,,,,,10,001,exponential,gyrb,0.75-0.35,2021_May_19_1045,color_judgement_and_subjective_perception,2020.2.10,60.021118070202796,
1,0.9,training,1000,,,,,,0,82,82,82,,,,,,,,,,,,,383.3820492889972,None,f,0.5715326040008222,383.4822492359999,None,382.8977983409968,383.3059095449971,384.08214819899877,384.5821810919988,384.08214819899877,None,,,,,,10,001,exponential,gyrb,0.75-0.35,2021_May_19_1045,color_judgement_and_subjective_perception,2020.2.10,60.021118070202796,
2,0.9,training,1000,,,,,,0,83,83,83,,,,,,,,,,,,,385.1823997749998,None,j,0.5393728469971393,385.2824754389985,None,384.6822705809973,385.0991117659978,385.84911453899986,386.3491803509969,385.84911453899986,None,,,,,,10,001,exponential,gyrb,0.75-0.35,2021_May_19_1045,color_judgement_and_subjective_perception,2020.2.10,60.021118070202796,
2,0.9,training,1000,,,,,,0,84,84,84,,,,,,,,,,,,,386.94925429799696,None,k,0.6045678650007176,387.04934266099735,None,386.44913114799783,386.8660947169992,387.68269676699856,388.1828097749967,387.68269676699856,None,,,,,,10,001,exponential,gyrb,0.75-0.35,2021_May_19_1045,color_judgement_and_subjective_perception,2020.2.10,60.021118070202796,
0,0.9,training,1000,,,,,,0,85,85,85,,,,,,,,,,,,,388.76716261899855,None,d,0.6186488029998145,388.8671949799973,None,388.2828295729996,388.6838413859987,389.51711668999997,390.01731122099955,389.51711668999997,None,,,,,,10,001,exponential,gyrb,0.75-0.35,2021_May_19_1045,color_judgement_and_subjective_perception,2020.2.10,60.021118070202796,
3,0.9,training,1000,,,,,,0,86,86,86,,,,,,,,,,,,,390.6174692539971,None,k,0.3763959989992145,390.717469670999,None,390.117251509997,390.53409137199924,391.11741101699954,391.6174810859993,391.11741101699954,None,,,,,,10,001,exponential,gyrb,0.75-0.35,2021_May_19_1045,color_judgement_and_subjective_perception,2020.2.10,60.021118070202796,
1,0.9,training,1000,,,,,,0,87,87,87,,,,,,,,,,,,,392.21761457299726,None,f,0.4563054669997655,392.31755080699804,None,391.7175251609988,392.13431073099855,392.8008779499978,393.2998683029982,392.8008779499978,None,,,,,,10,001,exponential,gyrb,0.75-0.35,2021_May_19_1045,color_judgement_and_subjective_perception,2020.2.10,60.021118070202796,
2,0.9,training,1000,,,,,,0,88,88,88,,,,,,,,,,,,,393.88546921799934,None,d,0.6843498260022898,393.98552213499715,None,393.38540562399794,393.80211931899976,394.7019108409986,395.2022635969988,394.7019108409986,None,,,,,,10,001,exponential,gyrb,0.75-0.35,2021_May_19_1045,color_judgement_and_subjective_perception,2020.2.10,60.021118070202796,
2,0.9,training,1000,,,,,,0,89,89,89,,,,,,,,,,,,,395.8025602739981,None,j,0.5113020019998658,395.9024701269991,None,395.3021722249978,395.71910724199915,396.4357845589984,396.93584529099826,396.4357845589984,None,,,,,,10,001,exponential,gyrb,0.75-0.35,2021_May_19_1045,color_judgement_and_subjective_perception,2020.2.10,60.021118070202796,
1,0.9,training,1000,,,,,,0,90,90,90,,,,,,,,,,,,,397.53590941999937,None,None,-1,397.6359408110002,None,397.03587547200004,397.4526438639987,398.1964897869984,398.6201854689971,398.1964897869984,None,,,,,,10,001,exponential,gyrb,0.75-0.35,2021_May_19_1045,color_judgement_and_subjective_perception,2020.2.10,60.021118070202796,
3,0.9,training,1000,,,,,,0,91,91,91,,,,,,,,,,,,,399.22035850300017,None,k,0.5494132029998582,399.3204456839994,None,398.72025332799967,399.1369442639989,399.8869584519998,400.35386609099805,399.8869584519998,None,,,,,,10,001,exponential,gyrb,0.75-0.35,2021_May_19_1045,color_judgement_and_subjective_perception,2020.2.10,60.021118070202796,
1,0.9,training,1000,,,,,,0,92,92,92,,,,,,,,,,,,,400.95405069999833,None,f,0.5037792449984408,401.0540925339992,None,400.4539577109972,400.8707393379991,401.574986454998,401.8629643999993,401.574986454998,None,,,,,,10,001,exponential,gyrb,0.75-0.35,2021_May_19_1045,color_judgement_and_subjective_perception,2020.2.10,60.021118070202796,
0,0.9,training,1000,,,,,,0,93,93,93,,,,,,,,,,,,,402.20793067699924,None,d,0.6854180999980599,402.2643997149971,None,401.9218171689972,402.1616729069974,402.970913506997,403.4551089569977,402.970913506997,None,,,,,,10,001,exponential,gyrb,0.75-0.35,2021_May_19_1045,color_judgement_and_subjective_perception,2020.2.10,60.021118070202796,
2,0.9,training,1000,,,,,,0,94,94,94,,,,,,,,,,,,,404.055184457,None,j,0.3947057639998093,404.15508157099976,None,403.5553539229986,403.9719463179972,404.5719623699988,405.07206990600025,404.5719623699988,None,,,,,,10,001,exponential,gyrb,0.75-0.35,2021_May_19_1045,color_judgement_and_subjective_perception,2020.2.10,60.021118070202796,
3,0.9,training,1000,,,,,,0,95,95,95,,,,,,,,,,,,,405.67215165299785,None,k,0.5615625060017919,405.77232154199737,None,405.1720270149999,405.5890341839986,406.3555291679986,406.85584211499736,406.3555291679986,None,,,,,,10,001,exponential,gyrb,0.75-0.35,2021_May_19_1045,color_judgement_and_subjective_perception,2020.2.10,60.021118070202796,
2,0.75,testing,1000,1,,,,,,,,,0,0,0,0,0,0,0,2,,,,,416.2253791339972,None,None,-1,416.32539943899974,None,415.73212885199973,416.14227349099747,417.24197907099733,417.7422613419985,417.24197907099733,None,29,10,0,,,10,001,exponential,gyrb,0.75-0.35,2021_May_19_1045,color_judgement_and_subjective_perception,2020.2.10,60.021118070202796,
1,0.75,testing,1000,1,,,,,,,,,0,0,0,0,0,1,1,1,,,,,418.32686327400006,None,k,0.5389673509998829,418.42677162799737,None,417.842253513998,418.2588921360002,418.99312971199834,419.49321752799733,418.99312971199834,None,38,38,0,,,10,001,exponential,gyrb,0.75-0.35,2021_May_19_1045,color_judgement_and_subjective_perception,2020.2.10,60.021118070202796,
0,0.75,testing,1000,1,,,,,,,,,0,0,0,0,0,2,2,0,,,,,420.0935630339991,None,j,0.644284059999336,420.1935031409994,None,419.593182968998,420.01017124899954,420.86018259999764,421.3604765229975,420.86018259999764,None,0,42,0,,,10,001,exponential,gyrb,0.75-0.35,2021_May_19_1045,color_judgement_and_subjective_perception,2020.2.10,60.021118070202796,
3,0.75,testing,1000,1,,,,,,,,,0,0,0,0,0,3,3,3,,,,,421.9604290729985,None,None,-1,422.06077946899677,None,421.46028432099774,421.87706922899815,422.97711679799977,423.46158626399847,422.97711679799977,None,0,0,53,,,10,001,exponential,gyrb,0.75-0.35,2021_May_19_1045,color_judgement_and_subjective_perception,2020.2.10,60.021118070202796,
1,0.75,testing,1000,1,,,,,,,,,0,0,0,0,1,0,4,1,,,,,424.06163006099814,None,d,0.604062372000044,424.1617732599989,None,423.56402840999726,423.9781840409996,424.7947963459992,425.2950208759976,424.7947963459992,None,42,42,0,,,10,001,exponential,gyrb,0.75-0.35,2021_May_19_1045,color_judgement_and_subjective_perception,2020.2.10,60.021118070202796,
2,0.75,testing,1000,1,,,,,,,,,0,0,0,0,1,1,5,2,,,,,425.895219905,None,f,0.36286897800164297,425.99499898700014,None,425.39502711399837,425.81201750499895,426.37851475299976,426.8787147929979,426.37851475299976,None,35,12,0,,,10,001,exponential,gyrb,0.75-0.35,2021_May_19_1045,color_judgement_and_subjective_perception,2020.2.10,60.021118070202796,
0,0.75,testing,1000,1,,,,,,,,,0,0,0,0,1,2,6,0,,,,,427.4786719909971,None,None,-1,427.5787445499991,None,426.97849861299983,427.39541454199934,428.4796460489997,428.97991701799765,428.4796460489997,None,0,47,0,,,10,001,exponential,gyrb,0.75-0.35,2021_May_19_1045,color_judgement_and_subjective_perception,2020.2.10,60.021118070202796,
3,0.75,testing,1000,1,,,,,,,,,0,0,0,0,1,3,7,3,,,,,429.5800764809974,None,k,0.6777896829989913,429.6799586669986,None,429.07958549499745,429.49646013500023,430.3798757429977,430.88016900899675,430.3798757429977,None,0,0,58,,,10,001,exponential,gyrb,0.75-0.35,2021_May_19_1045,color_judgement_and_subjective_perception,2020.2.10,60.021118070202796,
2,0.75,testing,1000,1,,,,,,,,,0,0,0,0,2,0,8,2,,,,,431.48017786499986,None,k,0.6496674789996177,431.58019116799915,None,430.98014593399785,431.3968239529968,432.2468015109989,432.74699067799884,432.2468015109989,None,39,13,0,,,10,001,exponential,gyrb,0.75-0.35,2021_May_19_1045,color_judgement_and_subjective_perception,2020.2.10,60.021118070202796,
3,0.75,testing,1000,1,,,,,,,,,0,0,0,0,2,1,9,3,,,,,433.3315470319976,None,k,0.550458174002415,433.4313434979995,None,432.8470413019968,433.26370702499844,434.0145730189979,434.5147620639982,434.0145730189979,None,0,0,61,,,10,001,exponential,gyrb,0.75-0.35,2021_May_19_1045,color_judgement_and_subjective_perception,2020.2.10,60.021118070202796,
1,0.75,testing,1000,1,,,,,,,,,0,0,0,0,2,2,10,1,,,,,435.11491372899764,None,j,0.7188790510008403,435.2149649159983,None,434.61493341799724,435.0316548979972,435.9649281489983,436.4651355939968,435.9649281489983,None,49,49,0,,,10,001,exponential,gyrb,0.75-0.35,2021_May_19_1045,color_judgement_and_subjective_perception,2020.2.10,60.021118070202796,
0,0.75,testing,1000,1,,,,,,,,,0,0,0,0,2,3,11,0,,,,,437.06521717599753,None,d,0.5445213219973084,437.16525789299703,None,436.5649097559981,436.9817618019988,437.7318595379984,438.23196475299846,437.7318595379984,None,0,53,0,,,10,001,exponential,gyrb,0.75-0.35,2021_May_19_1045,color_judgement_and_subjective_perception,2020.2.10,60.021118070202796,
1,0.75,testing,1000,1,,,,,,,,,0,0,0,0,3,0,12,1,,,,,438.81626856899675,None,d,0.4016781110003649,438.91617968799983,None,438.3249940889982,438.73310482799934,439.3494653309972,439.8496626649976,439.3494653309972,None,52,52,0,,,10,001,exponential,gyrb,0.75-0.35,2021_May_19_1045,color_judgement_and_subjective_perception,2020.2.10,60.021118070202796,
2,0.75,testing,1000,1,,,,,,,,,0,0,0,0,3,1,13,2,,,,,440.44984852799826,None,k,0.5520485719971475,440.54981514599785,None,439.94972310499725,440.36660732499877,441.1332560839983,441.6335388789994,441.1332560839983,None,45,15,0,,,10,001,exponential,gyrb,0.75-0.35,2021_May_19_1045,color_judgement_and_subjective_perception,2020.2.10,60.021118070202796,
3,0.75,testing,1000,1,,,,,,,,,0,0,0,0,3,2,14,3,,,,,442.2335254469981,None,j,0.4084460890007904,442.3334060549969,None,441.7332982109983,442.15007196799706,442.76672170500024,443.26695833899794,442.76672170500024,None,0,0,67,,,10,001,exponential,gyrb,0.75-0.35,2021_May_19_1045,color_judgement_and_subjective_perception,2020.2.10,60.021118070202796,
0,0.75,testing,1000,1,,,,,,,,,0,0,0,0,3,3,15,0,,,,,443.8512840429976,None,f,0.6307430109991401,443.95112723499915,None,443.35107917999994,443.7679178699982,444.60115967099773,445.10125270599747,444.60115967099773,None,0,58,0,,,10,001,exponential,gyrb,0.75-0.35,2021_May_19_1045,color_judgement_and_subjective_perception,2020.2.10,60.021118070202796,
3,0.75,testing,1000,1,,,,,,,,,0,0,0,0,4,0,16,3,,,,,445.70151585299755,None,k,0.6121094730006007,445.80175219399825,None,445.2014676259969,445.61824465799873,446.43489111300005,446.93505479099986,446.43489111300005,None,0,0,70,,,10,001,exponential,gyrb,0.75-0.35,2021_May_19_1045,color_judgement_and_subjective_perception,2020.2.10,60.021118070202796,
2,0.75,testing,1000,1,,,,,,,,,0,0,0,0,4,1,17,2,,,,,447.5351545809972,None,None,-1,447.63514645399846,None,447.0349130249997,447.45174270699863,448.5358939749967,449.03615917099887,448.5358939749967,None,50,17,0,,,10,001,exponential,gyrb,0.75-0.35,2021_May_19_1045,color_judgement_and_subjective_perception,2020.2.10,60.021118070202796,
0,0.75,testing,1000,1,,,,,,,,,0,0,0,0,4,2,18,0,,,,,449.63619535499674,None,d,0.7496139580034651,449.7362726559986,None,449.1359584040001,449.5529623219991,450.50283594499706,451.0032377239986,450.50283594499706,None,0,62,0,,,10,001,exponential,gyrb,0.75-0.35,2021_May_19_1045,color_judgement_and_subjective_perception,2020.2.10,60.021118070202796,
1,0.75,testing,1000,1,,,,,,,,,0,0,0,0,4,3,19,1,,,,,451.6031761319973,None,j,0.5825731260010798,451.70331041399913,None,451.1030690109983,451.51983399299934,452.30310623499827,452.8034924639978,452.30310623499827,None,60,60,0,,,10,001,exponential,gyrb,0.75-0.35,2021_May_19_1045,color_judgement_and_subjective_perception,2020.2.10,60.021118070202796,
2,0.75,testing,1000,1,,,,,,,,,0,0,0,0,5,0,20,2,,,,,453.38765158800015,None,k,0.6621102270000847,453.4876942029987,None,452.9032761939998,453.3188808599989,454.1709319039983,454.67106137099836,454.1709319039983,None,54,18,0,,,10,001,exponential,gyrb,0.75-0.35,2021_May_19_1045,color_judgement_and_subjective_perception,2020.2.10,60.021118070202796,
0,0.75,testing,1000,1,,,,,,,,,0,0,0,0,5,1,21,0,,,,,455.27131708699744,None,d,0.4503490300012345,455.3714207129997,None,454.77115589799723,455.1878143719987,455.8546168169996,456.35483284099973,455.8546168169996,None,0,66,0,,,10,001,exponential,gyrb,0.75-0.35,2021_May_19_1045,color_judgement_and_subjective_perception,2020.2.10,60.021118070202796,
3,0.75,testing,1000,1,,,,,,,,,0,0,0,0,5,2,22,3,,,,,456.95474372699755,None,k,0.4470928510017984,457.0547736849985,None,456.45460192399696,456.8715331349995,457.52153132999956,458.0216275999992,457.52153132999956,None,0,0,77,,,10,001,exponential,gyrb,0.75-0.35,2021_May_19_1045,color_judgement_and_subjective_perception,2020.2.10,60.021118070202796,
1,0.75,testing,1000,1,,,,,,,,,0,0,0,0,5,3,23,1,,,,,458.6058479579988,None,d,0.6360013650009932,458.7058490069976,None,458.12164478299746,458.52259294899704,459.3724269759987,459.8727082689984,459.3724269759987,None,65,65,0,,,10,001,exponential,gyrb,0.75-0.35,2021_May_19_1045,color_judgement_and_subjective_perception,2020.2.10,60.021118070202796,
1,0.75,testing,1000,1,,,,,,,,,0,0,0,0,6,0,24,1,,,,,460.4728937089967,None,k,0.42498159499882604,460.57288571000026,None,459.9727010360002,460.3896355090001,461.0228325069984,461.52301078299934,461.0228325069984,None,67,67,0,,,10,001,exponential,gyrb,0.75-0.35,2021_May_19_1045,color_judgement_and_subjective_perception,2020.2.10,60.021118070202796,
0,0.75,testing,1000,1,,,,,,,,,0,0,0,0,6,1,25,0,,,,,462.12303273499856,None,f,0.7108742579985119,462.22296341499896,None,461.6229547219991,462.0397476199978,462.9563449649977,463.4408269839987,462.9563449649977,None,0,71,0,,,10,001,exponential,gyrb,0.75-0.35,2021_May_19_1045,color_judgement_and_subjective_perception,2020.2.10,60.021118070202796,
2,0.75,testing,1000,1,,,,,,,,,0,0,0,0,6,2,26,2,,,,,464.0407765459968,None,k,0.5129704579994723,464.1408990939999,None,463.54087159199844,463.95743887999924,464.6741902549984,465.17441957399933,464.6741902549984,None,61,20,0,,,10,001,exponential,gyrb,0.75-0.35,2021_May_19_1045,color_judgement_and_subjective_perception,2020.2.10,60.021118070202796,
3,0.75,testing,1000,1,,,,,,,,,0,0,0,0,6,3,27,3,,,,,465.77470251499835,None,k,0.4592970339981548,465.87460953799746,None,465.274347757997,465.6912274069982,466.3578568189987,466.858005733,466.3578568189987,None,0,0,83,,,10,001,exponential,gyrb,0.75-0.35,2021_May_19_1045,color_judgement_and_subjective_perception,2020.2.10,60.021118070202796,
1,0.75,testing,1000,1,,,,,,,,,0,0,0,0,7,0,28,1,,,,,467.4581507339972,None,d,0.5596842960003414,467.55818079899836,None,466.9578899119988,467.3747613079977,468.141376173,468.6259640440003,468.141376173,None,72,72,0,,,10,001,exponential,gyrb,0.75-0.35,2021_May_19_1045,color_judgement_and_subjective_perception,2020.2.10,60.021118070202796,
2,0.75,testing,1000,1,,,,,,,,,0,0,0,0,7,1,29,2,,,,,469.22589166299804,None,f,0.8240600749995792,469.32576657499885,None,468.72575080299794,469.14238629699685,470.1758357819999,470.67612585299867,470.1758357819999,None,65,22,0,,,10,001,exponential,gyrb,0.75-0.35,2021_May_19_1045,color_judgement_and_subjective_perception,2020.2.10,60.021118070202796,
3,0.75,testing,1000,1,,,,,,,,,0,0,0,0,7,2,30,3,,,,,471.27623147199847,None,k,0.309593974998279,471.3762813129979,None,470.77611548999994,471.1928865150003,471.70931072500025,472.209497140997,471.70931072500025,None,0,0,85,,,10,001,exponential,gyrb,0.75-0.35,2021_May_19_1045,color_judgement_and_subjective_perception,2020.2.10,60.021118070202796,
0,0.75,testing,1000,1,,,,,,,,,0,0,0,0,7,3,31,0,,,,,472.8097249499988,None,d,0.6322592939977767,472.90961337899716,None,472.30958643899794,472.72641487799774,473.56064272799995,474.06046576099834,473.56064272799995,None,0,78,0,,,10,001,exponential,gyrb,0.75-0.35,2021_May_19_1045,color_judgement_and_subjective_perception,2020.2.10,60.021118070202796,
2,0.75,testing,1000,1,,,,,,,,,0,0,0,0,8,0,32,2,,,,,474.6607751579977,None,f,0.6051771290003671,474.76066537599763,None,474.1604822119989,474.5774103149997,475.39392838799904,475.89437521799846,475.39392838799904,None,69,23,0,,,10,001,exponential,gyrb,0.75-0.35,2021_May_19_1045,color_judgement_and_subjective_perception,2020.2.10,60.021118070202796,
1,0.75,testing,1000,1,,,,,,,,,0,0,0,0,8,1,33,1,,,,,476.4945232409991,None,f,0.539379572001053,476.5944826909981,None,475.9944006049991,476.41115485099726,477.16108050299954,477.66129488399747,477.16108050299954,None,78,78,0,,,10,001,exponential,gyrb,0.75-0.35,2021_May_19_1045,color_judgement_and_subjective_perception,2020.2.10,60.021118070202796,
3,0.75,testing,1000,1,,,,,,,,,0,0,0,0,8,2,34,3,,,,,478.26149692099716,None,k,0.5080940049992932,478.3457613149985,None,477.76119322999875,478.17816412299726,478.8787848899992,479.37909069399757,478.8787848899992,None,0,0,88,,,10,001,exponential,gyrb,0.75-0.35,2021_May_19_1045,color_judgement_and_subjective_perception,2020.2.10,60.021118070202796,
0,0.75,testing,1000,1,,,,,,,,,0,0,0,0,8,3,35,0,,,,,479.9789375479995,None,f,0.38275553100174875,480.07910502499726,None,479.4789414779989,479.89580149599715,480.4790758119998,480.9793686289995,480.4790758119998,None,0,83,0,,,10,001,exponential,gyrb,0.75-0.35,2021_May_19_1045,color_judgement_and_subjective_perception,2020.2.10,60.021118070202796,
0,0.75,testing,1000,1,,,,,,,,,0,0,0,0,9,0,36,0,,,,,481.5793206269991,None,d,0.5424032900009479,481.67948328499915,None,481.0792851569968,481.49600636499963,482.2458549969997,482.7459134319979,482.2458549969997,None,0,85,0,,,10,001,exponential,gyrb,0.75-0.35,2021_May_19_1045,color_judgement_and_subjective_perception,2020.2.10,60.021118070202796,
1,0.75,testing,1000,1,,,,,,,,,0,0,0,0,9,1,37,1,,,,,483.3376581179982,None,j,0.5992948980019719,483.43057724299797,None,482.8461611019993,483.2630000129975,484.0471054749978,484.5472422370003,484.0471054749978,None,83,83,0,,,10,001,exponential,gyrb,0.75-0.35,2021_May_19_1045,color_judgement_and_subjective_perception,2020.2.10,60.021118070202796,
2,0.75,testing,1000,1,,,,,,,,,0,0,0,0,9,2,38,2,,,,,485.1473986409983,None,f,0.5104838590013969,485.2473874139978,None,484.6472025169969,485.06400476699855,485.780777390999,486.2810292329996,485.780777390999,None,76,25,0,,,10,001,exponential,gyrb,0.75-0.35,2021_May_19_1045,color_judgement_and_subjective_perception,2020.2.10,60.021118070202796,
3,0.75,testing,1000,1,,,,,,,,,0,0,0,0,9,3,39,3,,,,,486.88105086499854,None,k,0.304877607999515,486.9809830519989,None,486.38089936899996,486.7975119469993,487.31409489199723,487.8143614619985,487.31409489199723,None,0,0,92,,,10,001,exponential,gyrb,0.75-0.35,2021_May_19_1045,color_judgement_and_subjective_perception,2020.2.10,60.021118070202796,
2,0.75,testing,1000,1,,,,,,,,,0,0,0,0,10,0,40,2,,,,,488.3989359299994,None,d,0.3949659169993538,488.4989012139995,None,487.9143838029995,488.32996017799815,488.91523579099885,489.4154806229999,488.91523579099885,None,79,26,0,,,10,001,exponential,gyrb,0.75-0.35,2021_May_19_1045,color_judgement_and_subjective_perception,2020.2.10,60.021118070202796,
0,0.75,testing,1000,1,,,,,,,,,0,0,0,0,10,1,41,0,,,,,490.01557895299993,None,j,0.4182155300004524,490.1156359219967,None,489.51550439999846,489.93225507699754,490.5656167319976,491.06580611299796,490.5656167319976,None,0,91,0,,,10,001,exponential,gyrb,0.75-0.35,2021_May_19_1045,color_judgement_and_subjective_perception,2020.2.10,60.021118070202796,
1,0.75,testing,1000,1,,,,,,,,,0,0,0,0,10,2,42,1,,,,,491.6657866349997,None,d,0.4480040160015051,491.7658630629994,None,491.1657708999992,491.5825449119984,492.2324812709994,492.73275300800015,492.2324812709994,None,89,89,0,,,10,001,exponential,gyrb,0.75-0.35,2021_May_19_1045,color_judgement_and_subjective_perception,2020.2.10,60.021118070202796,
3,0.75,testing,1000,1,,,,,,,,,0,0,0,0,10,3,43,3,,,,,493.3315760669975,None,k,0.46074705499995616,493.4170304799991,None,492.8325822459992,493.249524638999,493.90014242100006,494.400504543999,493.90014242100006,None,0,0,95,,,10,001,exponential,gyrb,0.75-0.35,2021_May_19_1045,color_judgement_and_subjective_perception,2020.2.10,60.021118070202796,
3,0.75,testing,1000,1,,,,,,,,,0,0,0,0,11,0,44,3,,,,,495.0005059869982,None,j,0.4172690829982457,495.10053716999755,None,494.5003310109969,494.9171314039995,495.55036333399767,496.05076692799776,495.55036333399767,None,0,0,95,,,10,001,exponential,gyrb,0.75-0.35,2021_May_19_1045,color_judgement_and_subjective_perception,2020.2.10,60.021118070202796,
1,0.75,testing,1000,1,,,,,,,,,0,0,0,0,11,1,45,1,,,,,496.65067435699893,None,j,0.4790707840002142,496.75079995099804,None,496.15079472999787,496.5675455169985,497.25084621699716,497.75106141599827,497.25084621699716,None,93,93,0,,,10,001,exponential,gyrb,0.75-0.35,2021_May_19_1045,color_judgement_and_subjective_perception,2020.2.10,60.021118070202796,
0,0.75,testing,1000,1,,,,,,,,,0,0,0,0,11,2,46,0,,,,,498.3424922489976,None,f,0.5307299369997054,498.435155793999,None,497.85092468499715,498.26777404899985,498.98515537799904,499.48531918799927,498.98515537799904,None,0,97,0,,,10,001,exponential,gyrb,0.75-0.35,2021_May_19_1045,color_judgement_and_subjective_perception,2020.2.10,60.021118070202796,
2,0.75,testing,1000,1,,,,,,,,,0,0,0,0,11,3,47,2,,,,,500.08550515899697,None,d,0.4443580949991883,500.18542778999836,None,499.5852873570002,500.002125089999,500.65211920799993,501.15249847999803,500.65211920799993,None,87,29,0,,,10,001,exponential,gyrb,0.75-0.35,2021_May_19_1045,color_judgement_and_subjective_perception,2020.2.10,60.021118070202796,
0,0.75,testing,1000,1,,,,,,,,,0,0,0,0,12,0,48,0,,,,,501.75247943499926,None,j,0.4414020309995976,501.8524422549999,None,501.25221914400026,501.668980688999,502.3189609000001,502.8192425709967,502.3189609000001,None,0,100,0,,,10,001,exponential,gyrb,0.75-0.35,2021_May_19_1045,color_judgement_and_subjective_perception,2020.2.10,60.021118070202796,
2,0.75,testing,1000,1,,,,,,,,,0,0,0,0,12,1,49,2,,,,,503.4036630899973,None,f,0.3181572559988126,503.50368958499894,None,502.9191291770003,503.3347218029994,503.8535061609982,504.3534977649979,503.8535061609982,None,90,30,0,,,10,001,exponential,gyrb,0.75-0.35,2021_May_19_1045,color_judgement_and_subjective_perception,2020.2.10,60.021118070202796,
3,0.75,testing,1000,1,,,,,,,,,0,0,0,0,12,2,50,3,,,,,504.953686113,None,k,0.432152497000061,505.0536782119998,None,504.453409411999,504.87035700499837,505.50374879399897,506.0039547089982,505.50374879399897,None,0,0,102,,,10,001,exponential,gyrb,0.75-0.35,2021_May_19_1045,color_judgement_and_subjective_perception,2020.2.10,60.021118070202796,
1,0.75,testing,1000,1,,,,,,,,,0,0,0,0,12,3,51,1,,,,,506.6039909409992,None,f,0.6219243330015161,506.70394782199946,None,506.10376740099673,506.52070302799984,507.3538733659989,507.85416108799836,507.3538733659989,None,100,100,0,,,10,001,exponential,gyrb,0.75-0.35,2021_May_19_1045,color_judgement_and_subjective_perception,2020.2.10,60.021118070202796,
1,0.75,testing,1000,1,,,,,,,,,0,0,0,0,13,0,52,1,,,,,508.438288309997,None,f,0.41944876100023976,508.5384008169967,None,507.9541263849969,508.35521967399836,508.9883590399986,509.4884285609987,508.9883590399986,None,102,102,0,,,10,001,exponential,gyrb,0.75-0.35,2021_May_19_1045,color_judgement_and_subjective_perception,2020.2.10,60.021118070202796,
3,0.75,testing,1000,1,,,,,,,,,0,0,0,0,13,1,53,3,,,,,510.0887139129991,None,j,0.47331364099954953,510.18854987599843,None,509.5883779879987,510.00525859299887,510.6885456179989,511.1888363879989,510.6885456179989,None,0,0,104,,,10,001,exponential,gyrb,0.75-0.35,2021_May_19_1045,color_judgement_and_subjective_perception,2020.2.10,60.021118070202796,
0,0.75,testing,1000,1,,,,,,,,,0,0,0,0,13,2,54,0,,,,,511.78894189999846,None,f,0.5649327380015166,511.8889337599976,None,511.2887189189969,511.70551743399847,512.4721436699983,512.9722073029989,512.4721436699983,None,0,107,0,,,10,001,exponential,gyrb,0.75-0.35,2021_May_19_1045,color_judgement_and_subjective_perception,2020.2.10,60.021118070202796,
2,0.75,testing,1000,1,,,,,,,,,0,0,0,0,13,3,55,2,,,,,513.5566461359995,None,k,0.6292650210016291,513.6566183959985,None,513.0724308619974,513.4733284409995,514.3065834049994,514.8067044729978,514.3065834049994,None,97,32,0,,,10,001,exponential,gyrb,0.75-0.35,2021_May_19_1045,color_judgement_and_subjective_perception,2020.2.10,60.021118070202796,
1,0.75,testing,1000,1,,,,,,,,,0,0,0,0,14,0,56,1,,,,,515.4069493489988,None,f,0.5628265249979449,515.5070578849991,None,514.9067387789983,515.3235109489979,516.0901784460002,516.5904072289995,516.0901784460002,None,107,107,0,,,10,001,exponential,gyrb,0.75-0.35,2021_May_19_1045,color_judgement_and_subjective_perception,2020.2.10,60.021118070202796,
2,0.75,testing,1000,1,,,,,,,,,0,0,0,0,14,1,57,2,,,,,517.190423795997,None,j,0.547312360999058,517.2905571099982,None,516.6904393579971,517.1072283549984,517.8571255349998,518.348425655,517.8571255349998,None,100,33,0,,,10,001,exponential,gyrb,0.75-0.35,2021_May_19_1045,color_judgement_and_subjective_perception,2020.2.10,60.021118070202796,
3,0.75,testing,1000,1,,,,,,,,,0,0,0,0,14,2,58,3,,,,,518.9415500019968,None,k,0.42027487700033817,519.0416053989975,None,518.4415257599976,518.8584030629972,519.4914175239974,519.991723414998,519.4914175239974,None,0,0,110,,,10,001,exponential,gyrb,0.75-0.35,2021_May_19_1045,color_judgement_and_subjective_perception,2020.2.10,60.021118070202796,
0,0.75,testing,1000,1,,,,,,,,,0,0,0,0,14,3,59,0,,,,,520.5919705219967,None,f,0.513946045000921,520.6919237429975,None,520.0915952369978,520.5085438959977,521.2251528069974,521.7254125159998,521.2251528069974,None,0,113,0,,,10,001,exponential,gyrb,0.75-0.35,2021_May_19_1045,color_judgement_and_subjective_perception,2020.2.10,60.021118070202796,
2,0.75,testing,1000,1,,,,,,,,,0,0,0,0,15,0,60,2,,,,,522.3254627569986,None,k,0.508501393996994,522.4253528289992,None,521.8252818529982,522.2420521059976,522.9587433719971,523.4430943389998,522.9587433719971,None,104,35,0,,,10,001,exponential,gyrb,0.75-0.35,2021_May_19_1045,color_judgement_and_subjective_perception,2020.2.10,60.021118070202796,
3,0.75,testing,1000,1,,,,,,,,,0,0,0,0,15,1,61,3,,,,,524.0429898179973,None,k,0.4787762109990581,524.1431191839984,None,523.5432447909989,523.9599252469998,524.643041987998,525.143419789998,524.643041987998,None,0,0,114,,,10,001,exponential,gyrb,0.75-0.35,2021_May_19_1045,color_judgement_and_subjective_perception,2020.2.10,60.021118070202796,
1,0.75,testing,1000,1,,,,,,,,,0,0,0,0,15,2,62,1,,,,,525.7436160789985,None,f,0.4901691140003095,525.8437034399976,None,525.2434432979971,525.660172609998,526.3602045909975,526.8602380769989,526.3602045909975,None,114,114,0,,,10,001,exponential,gyrb,0.75-0.35,2021_May_19_1045,color_judgement_and_subjective_perception,2020.2.10,60.021118070202796,
0,0.75,testing,1000,1,,,,,,,,,0,0,0,0,15,3,63,0,,,,,527.4603396669991,None,f,0.5173786710001878,527.5604250179967,None,526.9604769269972,527.3771584639981,528.110429305998,528.5948592169989,528.110429305998,None,0,118,0,,,10,001,exponential,gyrb,0.75-0.35,2021_May_19_1045,color_judgement_and_subjective_perception,2020.2.10,60.021118070202796,
0,0.75,testing,1000,1,,,,,,,,,0,0,0,0,16,0,64,0,,,,,529.1947006419978,None,d,0.49493811200227356,529.2949307299968,None,528.6946883089986,529.1112428719971,529.8114725669984,530.31172143,529.8114725669984,None,0,120,0,,,10,001,exponential,gyrb,0.75-0.35,2021_May_19_1045,color_judgement_and_subjective_perception,2020.2.10,60.021118070202796,
2,0.75,testing,1000,1,,,,,,,,,0,0,0,0,16,1,65,2,,,,,530.9117544179971,None,j,0.46597832000043127,531.011885134998,None,530.4115615069968,530.8284169299986,531.4950838139994,531.9952638569994,531.4950838139994,None,110,37,0,,,10,001,exponential,gyrb,0.75-0.35,2021_May_19_1045,color_judgement_and_subjective_perception,2020.2.10,60.021118070202796,
1,0.75,testing,1000,1,,,,,,,,,0,0,0,0,16,2,66,1,,,,,532.5952933629997,None,f,0.4146145000013348,532.6952537809993,None,532.095113419,532.5119558489969,533.1286572039971,533.6129786649981,533.1286572039971,None,117,117,0,,,10,001,exponential,gyrb,0.75-0.35,2021_May_19_1045,color_judgement_and_subjective_perception,2020.2.10,60.021118070202796,
3,0.75,testing,1000,1,,,,,,,,,0,0,0,0,16,3,67,3,,,,,534.212936533997,None,k,0.3966778419999173,534.3131914139994,None,533.7128389359968,534.1295635379975,534.7295313739996,535.229613468,534.7295313739996,None,0,0,117,,,10,001,exponential,gyrb,0.75-0.35,2021_May_19_1045,color_judgement_and_subjective_perception,2020.2.10,60.021118070202796,
3,0.75,testing,1000,1,,,,,,,,,0,0,0,0,17,0,68,3,,,,,535.830092289998,None,k,0.4441364060003252,535.9298067909986,None,535.329665770998,535.7465480089995,536.3965407379983,536.8967163119996,536.3965407379983,None,0,0,115,,,10,001,exponential,gyrb,0.75-0.35,2021_May_19_1045,color_judgement_and_subjective_perception,2020.2.10,60.021118070202796,
2,0.75,testing,1000,1,,,,,,,,,0,0,0,0,17,1,69,2,,,,,537.4968806529978,None,f,0.5049793399994087,537.5968948319969,None,536.9966887409973,537.4134479120003,538.1298520019991,538.6144916599987,538.1298520019991,None,109,36,0,,,10,001,exponential,gyrb,0.75-0.35,2021_May_19_1045,color_judgement_and_subjective_perception,2020.2.10,60.021118070202796,
1,0.75,testing,1000,1,,,,,,,,,0,0,0,0,17,2,70,1,,,,,539.2146366149973,None,f,0.4993154820003838,539.3145287939988,None,538.7145258529999,539.1312245019981,539.8311746509971,540.3316135200002,539.8311746509971,None,114,114,0,,,10,001,exponential,gyrb,0.75-0.35,2021_May_19_1045,color_judgement_and_subjective_perception,2020.2.10,60.021118070202796,
0,0.75,testing,1000,1,,,,,,,,,0,0,0,0,17,3,71,0,,,,,540.9317229219996,None,f,0.5500466049998067,541.0317335829968,None,540.4314258179984,540.8482867169987,541.6149271119975,542.1151147759992,541.6149271119975,None,0,122,0,,,10,001,exponential,gyrb,0.75-0.35,2021_May_19_1045,color_judgement_and_subjective_perception,2020.2.10,60.021118070202796,
3,0.75,testing,1000,1,,,,,,,,,0,0,0,0,18,0,72,3,,,,,542.7150318669992,None,k,0.4787230920010188,542.8151655399997,None,542.2150722779988,542.6317450399983,543.3150684059983,543.7996150129984,543.3150684059983,None,0,0,116,,,10,001,exponential,gyrb,0.75-0.35,2021_May_19_1045,color_judgement_and_subjective_perception,2020.2.10,60.021118070202796,
2,0.75,testing,1000,1,,,,,,,,,0,0,0,0,18,1,73,2,,,,,544.3996161799987,None,j,0.44215058500049054,544.4997173229967,None,543.8994616889977,544.316094218997,544.9660825059982,545.4665459030002,544.9660825059982,None,114,38,0,,,10,001,exponential,gyrb,0.75-0.35,2021_May_19_1045,color_judgement_and_subjective_perception,2020.2.10,60.021118070202796,
0,0.75,testing,1000,1,,,,,,,,,0,0,0,0,18,2,74,0,,,,,546.0665873379985,None,f,0.5912273979993188,546.1666477699982,None,545.566152954998,545.9832573899985,546.7830833810003,547.2832115049969,546.7830833810003,None,0,124,0,,,10,001,exponential,gyrb,0.75-0.35,2021_May_19_1045,color_judgement_and_subjective_perception,2020.2.10,60.021118070202796,
1,0.75,testing,1000,1,,,,,,,,,0,0,0,0,18,3,75,1,,,,,547.8835168419973,None,d,0.43834637100007967,547.9835095050003,None,547.3832909929988,547.800095442999,548.4509666119993,548.951029369,548.4509666119993,None,116,116,0,,,10,001,exponential,gyrb,0.75-0.35,2021_May_19_1045,color_judgement_and_subjective_perception,2020.2.10,60.021118070202796,
1,0.75,testing,1000,1,,,,,,,,,0,0,0,0,19,0,76,1,,,,,549.5511306649969,None,f,0.4028019340003084,549.6510429869995,None,549.0510081599969,549.4680837699998,550.0843515829984,550.5847970809991,550.0843515829984,None,118,118,0,,,10,001,exponential,gyrb,0.75-0.35,2021_May_19_1045,color_judgement_and_subjective_perception,2020.2.10,60.021118070202796,
0,0.75,testing,1000,1,,,,,,,,,0,0,0,0,19,1,77,0,,,,,551.1850440989983,None,d,0.39296648999879835,551.284942678998,None,550.6845524429991,551.1014655489998,551.7013211369995,552.2015308560003,551.7013211369995,None,0,128,0,,,10,001,exponential,gyrb,0.75-0.35,2021_May_19_1045,color_judgement_and_subjective_perception,2020.2.10,60.021118070202796,
2,0.75,testing,1000,1,,,,,,,,,0,0,0,0,19,2,78,2,,,,,552.801685921997,None,j,0.3761453300030553,552.9017119929995,None,552.3015376309995,552.718344678,553.3016117089974,553.7862191699969,553.3016117089974,None,118,39,0,,,10,001,exponential,gyrb,0.75-0.35,2021_May_19_1045,color_judgement_and_subjective_perception,2020.2.10,60.021118070202796,
3,0.75,testing,1000,1,,,,,,,,,0,0,0,0,19,3,79,3,,,,,554.3861725829993,None,k,0.28764371600118466,554.4862393799995,None,553.8859479589992,554.3026392270003,554.8026208409974,555.3028935659968,554.8026208409974,None,0,0,118,,,10,001,exponential,gyrb,0.75-0.35,2021_May_19_1045,color_judgement_and_subjective_perception,2020.2.10,60.021118070202796,
2,0.75,testing,1000,1,,,,,,,,,0,0,0,0,20,0,80,2,,,,,555.9031806860003,None,j,0.522798021997005,556.003049076,None,555.4028012339986,555.8196444999994,556.5529270859988,557.0529547309998,556.5529270859988,None,117,39,0,,,10,001,exponential,gyrb,0.75-0.35,2021_May_19_1045,color_judgement_and_subjective_perception,2020.2.10,60.021118070202796,
3,0.75,testing,1000,1,,,,,,,,,0,0,0,0,20,1,81,3,,,,,557.6532531390003,None,None,-1,557.7367027909968,None,557.1531053399995,557.5698752659991,558.2647804319968,558.704389743998,558.2647804319968,None,0,0,115,,,10,001,exponential,gyrb,0.75-0.35,2021_May_19_1045,color_judgement_and_subjective_perception,2020.2.10,60.021118070202796,
0,0.75,testing,1000,1,,,,,,,,,0,0,0,0,20,2,82,0,,,,,559.304333920998,None,f,0.5054187440000533,559.4044140499973,None,558.8042543849988,559.2209394239981,559.9375232019993,560.437847874,559.9375232019993,None,0,128,0,,,10,001,exponential,gyrb,0.75-0.35,2021_May_19_1045,color_judgement_and_subjective_perception,2020.2.10,60.021118070202796,
1,0.75,testing,1000,1,,,,,,,,,0,0,0,0,20,3,83,1,,,,,561.021577749998,None,f,0.4442842169992218,561.1215144369999,None,560.5365015499992,560.9380584409992,561.5880521369982,562.0565775839968,561.5880521369982,None,120,120,0,,,10,001,exponential,gyrb,0.75-0.35,2021_May_19_1045,color_judgement_and_subjective_perception,2020.2.10,60.021118070202796,
3,0.75,testing,1000,1,,,,,,,,,0,0,0,0,21,0,84,3,,,,,562.4292232150001,None,None,-1,562.4866058169973,None,562.1233470119987,562.3804365269971,563.011965499998,563.3890607229987,563.011965499998,None,0,0,119,,,10,001,exponential,gyrb,0.75-0.35,2021_May_19_1045,color_judgement_and_subjective_perception,2020.2.10,60.021118070202796,
1,0.75,testing,1000,1,,,,,,,,,0,0,0,0,21,1,85,1,,,,,563.9890214259976,None,j,0.4767721159987559,564.089080927999,None,563.4892147329992,563.9057491619969,564.589056244,565.0893080529968,564.589056244,None,121,121,0,,,10,001,exponential,gyrb,0.75-0.35,2021_May_19_1045,color_judgement_and_subjective_perception,2020.2.10,60.021118070202796,
2,0.75,testing,1000,1,,,,,,,,,0,0,0,0,21,2,86,2,,,,,565.6896033509984,None,j,0.5283379329994204,565.7895295609997,None,565.1891612090003,565.606046249999,566.3394774629996,566.8395013459995,566.3394774629996,None,120,40,0,,,10,001,exponential,gyrb,0.75-0.35,2021_May_19_1045,color_judgement_and_subjective_perception,2020.2.10,60.021118070202796,
0,0.75,testing,1000,1,,,,,,,,,0,0,0,0,21,3,87,0,,,,,567.4397067350001,None,f,0.5700948830017296,567.5397661479983,None,566.9395472999968,567.3564212609999,568.1397048250001,568.6240930019994,568.1397048250001,None,0,134,0,,,10,001,exponential,gyrb,0.75-0.35,2021_May_19_1045,color_judgement_and_subjective_perception,2020.2.10,60.021118070202796,
1,0.75,testing,1000,1,,,,,,,,,0,0,0,0,22,0,88,1,,,,,569.2242784150003,None,d,0.46569341700160294,569.3241699819991,None,568.7240879019992,569.1407667139974,569.807385590997,570.3076266259995,569.807385590997,None,125,125,0,,,10,001,exponential,gyrb,0.75-0.35,2021_May_19_1045,color_judgement_and_subjective_perception,2020.2.10,60.021118070202796,
3,0.75,testing,1000,1,,,,,,,,,0,0,0,0,22,1,89,3,,,,,570.9078762399986,None,k,0.4060011050023604,571.0078427289991,None,570.4076473879977,570.8243776609997,571.4409340239981,571.9411296559992,571.4409340239981,None,0,0,125,,,10,001,exponential,gyrb,0.75-0.35,2021_May_19_1045,color_judgement_and_subjective_perception,2020.2.10,60.021118070202796,
0,0.75,testing,1000,1,,,,,,,,,0,0,0,0,22,2,90,0,,,,,572.5411902159976,None,f,0.516603333002422,572.6412395719999,None,572.0411276569976,572.4580400829982,573.1745541339988,573.6589896349979,573.1745541339988,None,0,138,0,,,10,001,exponential,gyrb,0.75-0.35,2021_May_19_1045,color_judgement_and_subjective_perception,2020.2.10,60.021118070202796,
2,0.75,testing,1000,1,,,,,,,,,0,0,0,0,22,3,91,2,,,,,574.2589270209974,None,j,0.4787716710015957,574.3590814509989,None,573.7589487139994,574.1755835999975,574.858960259,575.3593206969999,574.858960259,None,124,41,0,,,10,001,exponential,gyrb,0.75-0.35,2021_May_19_1045,color_judgement_and_subjective_perception,2020.2.10,60.021118070202796,
3,0.75,testing,1000,1,,,,,,,,,0,0,0,0,23,0,92,3,,,,,575.9594098399975,None,k,0.29852660300093703,576.0593648959984,None,575.4591564579969,575.8761090549997,576.3759321959988,576.8760945429967,576.3759321959988,None,0,0,129,,,10,001,exponential,gyrb,0.75-0.35,2021_May_19_1045,color_judgement_and_subjective_perception,2020.2.10,60.021118070202796,
2,0.75,testing,1000,1,,,,,,,,,0,0,0,0,23,1,93,2,,,,,577.4762196539996,None,k,0.45366727100190474,577.5761773300001,None,576.9761717859983,577.3927392309997,578.0595226349978,578.5440295209992,578.0595226349978,None,125,42,0,,,10,001,exponential,gyrb,0.75-0.35,2021_May_19_1045,color_judgement_and_subjective_perception,2020.2.10,60.021118070202796,
1,0.75,testing,1000,1,,,,,,,,,0,0,0,0,23,2,94,1,,,,,579.1440844229983,None,f,0.49782563500048127,579.2440345939976,None,578.6438400400002,579.0606717779992,579.7605611990002,580.2607681219997,579.7605611990002,None,132,132,0,,,10,001,exponential,gyrb,0.75-0.35,2021_May_19_1045,color_judgement_and_subjective_perception,2020.2.10,60.021118070202796,
0,0.75,testing,1000,1,,,,,,,,,0,0,0,0,23,3,95,0,,,,,580.8609161929999,None,d,0.4369646320010361,580.9608789669983,None,580.3608000589993,580.7776105470002,581.4274355579983,581.9277772269998,581.4274355579983,None,0,144,0,,,10,001,exponential,gyrb,0.75-0.35,2021_May_19_1045,color_judgement_and_subjective_perception,2020.2.10,60.021118070202796,
2,0.75,testing,1000,1,,,,,,,,,0,0,0,0,,,,,0,0,0,2,660.2359608849983,None,j,0.8857323640004324,660.3360629759991,None,659.7356558719985,660.1526627189996,661.2563846339981,661.7528986340003,661.2563846339981,None,129,43,0,582.0447630319977,None,10,001,exponential,gyrb,0.75-0.35,2021_May_19_1045,color_judgement_and_subjective_perception,2020.2.10,60.021118070202796,
1,0.75,testing,1000,1,,,,,,,,,0,0,0,0,,,,,0,1,1,1,662.3530261969972,None,f,0.46477821299777133,662.4530880649982,None,661.8526479809989,662.2696491839997,662.9388817069994,663.4208419999995,662.9388817069994,None,134,134,0,None,None,10,001,exponential,gyrb,0.75-0.35,2021_May_19_1045,color_judgement_and_subjective_perception,2020.2.10,60.021118070202796,
1,0.75,testing,1000,1,,,,,,,,,0,0,0,0,,,,,0,2,2,1,664.0208323779989,None,f,0.45303954699920723,664.1208180849972,None,663.5206576349992,663.9376212549978,664.6040108499983,665.1042861969981,664.6040108499983,None,132,132,0,None,None,10,001,exponential,gyrb,0.75-0.35,2021_May_19_1045,color_judgement_and_subjective_perception,2020.2.10,60.021118070202796,
1,0.75,testing,1000,1,,,,,,,,,0,0,0,0,,,,,0,3,3,1,665.7045252229982,None,f,0.44127111900161253,665.8046058289983,None,665.204095052999,665.6212263380003,666.270962904,666.7711390279983,666.270962904,None,130,130,0,None,None,10,001,exponential,gyrb,0.75-0.35,2021_May_19_1045,color_judgement_and_subjective_perception,2020.2.10,60.021118070202796,
2,0.75,testing,1000,1,,,,,,,,,0,0,0,0,,,,,1,0,4,2,667.3712217430002,None,j,0.39051193200066336,667.4713603799973,None,666.8710206309988,667.2880026239982,667.887981328,668.3869096449998,667.887981328,None,124,41,0,None,None,10,001,exponential,gyrb,0.75-0.35,2021_May_19_1045,color_judgement_and_subjective_perception,2020.2.10,60.021118070202796,
1,0.75,testing,1000,1,,,,,,,,,0,0,0,0,,,,,1,1,5,1,668.9724646089999,None,d,0.46950349700273364,669.0723433979983,None,668.4723116259993,668.8891290789979,669.5739158929973,670.0727251279968,669.5739158929973,None,127,127,0,None,None,10,001,exponential,gyrb,0.75-0.35,2021_May_19_1045,color_judgement_and_subjective_perception,2020.2.10,60.021118070202796,
3,0.75,testing,1000,1,,,,,,,,,0,0,0,0,,,,,1,2,6,3,670.6727077059986,None,k,0.32900500200048555,670.7728584949982,None,670.1724089509989,670.5891972639984,671.1244540949992,671.6228365899988,671.1244540949992,None,0,0,130,None,None,10,001,exponential,gyrb,0.75-0.35,2021_May_19_1045,color_judgement_and_subjective_perception,2020.2.10,60.021118070202796,
2,0.75,testing,1000,1,,,,,,,,,0,0,0,0,,,,,1,3,7,2,672.2230957319989,None,j,0.3630185200017877,672.3228509559995,None,671.7227089949993,672.1395860729972,672.7062259079976,673.2063151179973,672.7062259079976,None,122,41,0,None,None,10,001,exponential,gyrb,0.75-0.35,2021_May_19_1045,color_judgement_and_subjective_perception,2020.2.10,60.021118070202796,
1,0.75,testing,1000,1,,,,,,,,,0,0,0,0,,,,,2,0,8,1,673.790742170997,None,f,0.47512967999864486,673.8907208969977,None,673.3060556249984,673.7073266099978,674.3905289569993,674.8907245679984,674.3905289569993,None,127,127,0,None,None,10,001,exponential,gyrb,0.75-0.35,2021_May_19_1045,color_judgement_and_subjective_perception,2020.2.10,60.021118070202796,
3,0.75,testing,1000,1,,,,,,,,,0,0,0,0,,,,,2,1,9,3,675.4909876509992,None,j,0.3589458700007526,675.5909080399979,None,674.9905881719969,675.4075256549986,675.9756629869989,676.4743447529981,675.9756629869989,None,0,0,126,None,None,10,001,exponential,gyrb,0.75-0.35,2021_May_19_1045,color_judgement_and_subjective_perception,2020.2.10,60.021118070202796,
2,0.75,testing,1000,1,,,,,,,,,0,0,0,0,,,,,2,2,10,2,677.0744187210003,None,j,0.5273700239995378,677.174399001,None,676.5741047589981,676.9911498259971,677.7260339989989,678.2245512759982,677.7260339989989,None,120,40,0,None,None,10,001,exponential,gyrb,0.75-0.35,2021_May_19_1045,color_judgement_and_subjective_perception,2020.2.10,60.021118070202796,
3,0.75,testing,1000,1,,,,,,,,,0,0,0,0,,,,,2,3,11,3,678.8089505719981,None,k,0.31295974400200066,678.9089067869972,None,678.3244639219993,678.7256093119977,679.2420570590002,679.742308695997,679.2420570590002,None,0,0,129,None,None,10,001,exponential,gyrb,0.75-0.35,2021_May_19_1045,color_judgement_and_subjective_perception,2020.2.10,60.021118070202796,
1,0.75,testing,1000,1,,,,,,,,,0,0,0,0,,,,,3,0,12,1,680.3425352459999,None,f,0.45942528399973526,680.4424757909983,None,679.842247108998,680.2590779649981,680.9257808859984,681.4261116599992,680.9257808859984,None,128,128,0,None,None,10,001,exponential,gyrb,0.75-0.35,2021_May_19_1045,color_judgement_and_subjective_perception,2020.2.10,60.021118070202796,
2,0.75,testing,1000,1,,,,,,,,,0,0,0,0,,,,,3,1,13,2,682.0260531269996,None,j,0.44785491800212185,682.1260119399994,None,681.525774775997,681.9426826819981,682.592800598999,683.0929002659977,682.592800598999,None,118,39,0,None,None,10,001,exponential,gyrb,0.75-0.35,2021_May_19_1045,color_judgement_and_subjective_perception,2020.2.10,60.021118070202796,
3,0.75,testing,1000,1,,,,,,,,,0,0,0,0,,,,,3,2,14,3,683.6771401959995,None,j,0.40463221299796714,683.7771538959969,None,683.1927305110003,683.5937820859981,684.2121087220003,684.710578465998,684.2121087220003,None,0,0,127,None,None,10,001,exponential,gyrb,0.75-0.35,2021_May_19_1045,color_judgement_and_subjective_perception,2020.2.10,60.021118070202796,
1,0.75,testing,1000,1,,,,,,,,,0,0,0,0,,,,,3,3,15,1,685.3107285149999,None,f,0.42715210700043826,685.4107351159982,None,684.8103810139983,685.2272405049989,685.8622453919997,686.3609394759987,685.8622453919997,None,126,126,0,None,None,10,001,exponential,gyrb,0.75-0.35,2021_May_19_1045,color_judgement_and_subjective_perception,2020.2.10,60.021118070202796,
2,0.75,testing,1000,1,,,,,,,,,0,0,0,0,,,,,4,0,16,2,686.9609358859998,None,k,0.432885038000677,687.0609981799971,None,686.4607132339988,686.8776724799973,687.5127845869974,688.011076712999,687.5127845869974,None,118,39,0,None,None,10,001,exponential,gyrb,0.75-0.35,2021_May_19_1045,color_judgement_and_subjective_perception,2020.2.10,60.021118070202796,
0,0.75,testing,1000,1,,,,,,,,,0,0,0,0,,,,,4,1,17,0,688.5955154309995,None,f,0.5184764549994725,688.6953962970001,None,688.1109233049974,688.5121081519974,689.2452661159987,689.7455217440001,689.2452661159987,None,0,141,0,None,None,10,001,exponential,gyrb,0.75-0.35,2021_May_19_1045,color_judgement_and_subjective_perception,2020.2.10,60.021118070202796,
1,0.75,testing,1000,1,,,,,,,,,0,0,0,0,,,,,4,2,18,1,690.3456363579971,None,f,0.44833765200019116,690.4455180639998,None,689.8453020779998,690.262080045999,690.9141453369994,691.4125890489995,690.9141453369994,None,128,128,0,None,None,10,001,exponential,gyrb,0.75-0.35,2021_May_19_1045,color_judgement_and_subjective_perception,2020.2.10,60.021118070202796,
2,0.75,testing,1000,1,,,,,,,,,0,0,0,0,,,,,4,3,19,2,692.0124675419975,None,j,0.42116149899811717,692.1126201469997,None,691.5123341709987,691.9292180369994,692.5624162339991,693.062784496,692.5624162339991,None,122,41,0,None,None,10,001,exponential,gyrb,0.75-0.35,2021_May_19_1045,color_judgement_and_subjective_perception,2020.2.10,60.021118070202796,
2,0.75,testing,1000,1,,,,,,,,,0,0,0,0,,,,,5,0,20,2,693.6470633509998,None,j,0.6188706160028232,693.7469757289982,None,693.1626476649981,693.5636418059985,694.396763681998,694.8971766579998,694.396763681998,None,122,41,0,None,None,10,001,exponential,gyrb,0.75-0.35,2021_May_19_1045,color_judgement_and_subjective_perception,2020.2.10,60.021118070202796,
2,0.75,testing,1000,1,,,,,,,,,0,0,0,0,,,,,5,1,21,2,695.4972332209982,None,j,0.41660229500121204,695.5972809279992,None,694.9969744359987,695.4138270299991,696.0309765159982,696.5307054219993,696.0309765159982,None,120,40,0,None,None,10,001,exponential,gyrb,0.75-0.35,2021_May_19_1045,color_judgement_and_subjective_perception,2020.2.10,60.021118070202796,
2,0.75,testing,1000,1,,,,,,,,,0,0,0,0,,,,,5,2,22,2,697.1307544829979,None,j,0.35118546900048386,697.230686687999,None,696.6305177689974,697.0474162499995,697.6139494889976,698.1142888709983,697.6139494889976,None,118,39,0,None,None,10,001,exponential,gyrb,0.75-0.35,2021_May_19_1045,color_judgement_and_subjective_perception,2020.2.10,60.021118070202796,
2,0.75,testing,1000,1,,,,,,,,,0,0,0,0,,,,,5,3,23,2,698.698567771,None,j,0.31124546700084466,698.7985282769987,None,698.214147552997,698.6152828630002,699.1317760299971,699.6318918519974,699.1317760299971,None,116,39,0,None,None,10,001,exponential,gyrb,0.75-0.35,2021_May_19_1045,color_judgement_and_subjective_perception,2020.2.10,60.021118070202796,
2,0.75,testing,1000,1,,,,,,,,,0,0,0,0,,,,,6,0,24,2,700.232162581,None,j,0.2978401100008341,700.3320376149968,None,699.7317919109992,700.1486402379996,700.6487507399979,701.1490778909974,700.6487507399979,None,114,38,0,None,None,10,001,exponential,gyrb,0.75-0.35,2021_May_19_1045,color_judgement_and_subjective_perception,2020.2.10,60.021118070202796,
3,0.75,testing,1000,1,,,,,,,,,0,0,0,0,,,,,6,1,25,3,701.7488874999981,None,k,0.46901292400070815,701.8488627589977,None,701.2487985099979,701.6654879779999,702.3489329629992,702.8491010299986,702.3489329629992,None,0,0,129,None,None,10,001,exponential,gyrb,0.75-0.35,2021_May_19_1045,color_judgement_and_subjective_perception,2020.2.10,60.021118070202796,
3,0.75,testing,1000,1,,,,,,,,,0,0,0,0,,,,,6,2,26,3,703.4334738709986,None,k,0.4965727730013896,703.5332933419995,None,702.9488511899981,703.3658854299974,704.0499559249984,704.5500397869982,704.0499559249984,None,0,0,129,None,None,10,001,exponential,gyrb,0.75-0.35,2021_May_19_1045,color_judgement_and_subjective_perception,2020.2.10,60.021118070202796,
2,0.75,testing,1000,1,,,,,,,,,0,0,0,0,,,,,6,3,27,2,705.1501600299998,None,j,0.3875419520009018,705.2503182829969,None,704.6500278759995,705.066947354997,705.6673565229976,706.1672177069995,705.6673565229976,None,110,37,0,None,None,10,001,exponential,gyrb,0.75-0.35,2021_May_19_1045,color_judgement_and_subjective_perception,2020.2.10,60.021118070202796,
0,0.75,testing,1000,1,,,,,,,,,0,0,0,0,,,,,7,0,28,0,706.7671539410003,None,f,0.5387511339977209,706.8671213809976,None,706.2670128299978,706.6838808229986,707.4353393919992,707.9339543789974,707.4353393919992,None,0,137,0,None,None,10,001,exponential,gyrb,0.75-0.35,2021_May_19_1045,color_judgement_and_subjective_perception,2020.2.10,60.021118070202796,
1,0.75,testing,1000,1,,,,,,,,,0,0,0,0,,,,,7,1,29,1,708.5184225569974,None,f,0.5314988770005584,708.618381155,None,708.033880013998,708.4349234639994,709.1700197859973,709.668458958,709.1700197859973,None,122,122,0,None,None,10,001,exponential,gyrb,0.75-0.35,2021_May_19_1045,color_judgement_and_subjective_perception,2020.2.10,60.021118070202796,
2,0.75,testing,1000,1,,,,,,,,,0,0,0,0,,,,,7,2,30,2,710.2685645959973,None,j,0.45312356900103623,710.3687300629972,None,709.7682919559993,710.1851747849978,710.851922652997,711.3521708089975,710.851922652997,None,108,36,0,None,None,10,001,exponential,gyrb,0.75-0.35,2021_May_19_1045,color_judgement_and_subjective_perception,2020.2.10,60.021118070202796,
1,0.75,testing,1000,1,,,,,,,,,0,0,0,0,,,,,7,3,31,1,711.9521344869972,None,d,0.5377122309982951,712.0521482949989,None,711.4519058879996,711.8688465489977,712.6205057129991,713.1190053809987,712.6205057129991,None,119,119,0,None,None,10,001,exponential,gyrb,0.75-0.35,2021_May_19_1045,color_judgement_and_subjective_perception,2020.2.10,60.021118070202796,
2,0.75,testing,1000,1,,,,,,,,,0,0,0,0,,,,,8,0,32,2,713.7033257219991,None,j,0.3786020709994773,713.8032691709996,None,713.2189385459969,713.6199605439979,714.2045425399992,714.7034304909976,714.2045425399992,None,107,36,0,None,None,10,001,exponential,gyrb,0.75-0.35,2021_May_19_1045,color_judgement_and_subjective_perception,2020.2.10,60.021118070202796,
0,0.75,testing,1000,1,,,,,,,,,0,0,0,0,,,,,8,1,33,0,715.3034060539976,None,f,0.4663523770032043,715.4035193149975,None,714.8031094349972,715.2201058649989,715.8891472159994,716.3869768589975,715.8891472159994,None,0,139,0,None,None,10,001,exponential,gyrb,0.75-0.35,2021_May_19_1045,color_judgement_and_subjective_perception,2020.2.10,60.021118070202796,
1,0.75,testing,1000,1,,,,,,,,,0,0,0,0,,,,,8,2,34,1,716.9870679059968,None,f,0.4467082129995106,717.0871476949978,None,716.486890283999,716.9037475699988,717.5555002529982,718.0538864159971,717.5555002529982,None,123,123,0,None,None,10,001,exponential,gyrb,0.75-0.35,2021_May_19_1045,color_judgement_and_subjective_perception,2020.2.10,60.021118070202796,
3,0.75,testing,1000,1,,,,,,,,,0,0,0,0,,,,,8,3,35,3,718.6383424149972,None,j,0.3956104989993037,718.7382681460003,None,718.1537077949979,718.5548915259969,719.1565824389982,719.6547496789972,719.1565824389982,None,0,0,131,None,None,10,001,exponential,gyrb,0.75-0.35,2021_May_19_1045,color_judgement_and_subjective_perception,2020.2.10,60.021118070202796,
0,0.75,testing,1000,1,,,,,,,,,0,0,0,0,,,,,9,0,36,0,720.2552081510003,None,d,0.5787873289991694,720.3550537019983,None,719.7546725499997,720.1717149579999,720.9566898140001,721.4554323159973,720.9566898140001,None,0,143,0,None,None,10,001,exponential,gyrb,0.75-0.35,2021_May_19_1045,color_judgement_and_subjective_perception,2020.2.10,60.021118070202796,
2,0.75,testing,1000,1,,,,,,,,,0,0,0,0,,,,,9,1,37,2,722.0554553689981,None,j,0.4344482179985789,722.1553258849999,None,721.5551650529997,721.972105097997,722.6216929049988,723.1222302440001,722.6216929049988,None,111,37,0,None,None,10,001,exponential,gyrb,0.75-0.35,2021_May_19_1045,color_judgement_and_subjective_perception,2020.2.10,60.021118070202796,
1,0.75,testing,1000,1,,,,,,,,,0,0,0,0,,,,,9,2,38,1,723.7064919730001,None,d,0.6714769460013486,723.8063799409974,None,723.2220634979967,723.6230857159971,724.5079410749968,725.0066352819995,724.5079410749968,None,126,126,0,None,None,10,001,exponential,gyrb,0.75-0.35,2021_May_19_1045,color_judgement_and_subjective_perception,2020.2.10,60.021118070202796,
0,0.75,testing,1000,1,,,,,,,,,0,0,0,0,,,,,9,3,39,0,725.6067665899973,None,f,0.4430606229980185,725.7067970949975,None,725.1064350609995,725.5235168389991,726.1733590199983,726.6735220159972,726.1733590199983,None,0,147,0,None,None,10,001,exponential,gyrb,0.75-0.35,2021_May_19_1045,color_judgement_and_subjective_perception,2020.2.10,60.021118070202796,
0,0.75,testing,1000,1,,,,,,,,,0,0,0,0,,,,,10,0,40,0,727.2736523359999,None,d,0.6161988730018493,727.3736852229995,None,726.7733444449987,727.1900436799988,728.0090654479973,728.491355422997,728.0090654479973,None,0,149,0,None,None,10,001,exponential,gyrb,0.75-0.35,2021_May_19_1045,color_judgement_and_subjective_perception,2020.2.10,60.021118070202796,
3,0.75,testing,1000,1,,,,,,,,,0,0,0,0,,,,,10,1,41,3,729.0913369319969,None,k,0.510595290998026,729.1912529559995,None,728.5911135499991,729.0080307659991,729.7246575399986,730.2249615919973,729.7246575399986,None,0,0,138,None,None,10,001,exponential,gyrb,0.75-0.35,2021_May_19_1045,color_judgement_and_subjective_perception,2020.2.10,60.021118070202796,
0,0.75,testing,1000,1,,,,,,,,,0,0,0,0,,,,,10,2,42,0,730.825078832997,None,d,0.5447678329983319,730.9250891709999,None,730.3248250019969,730.7416937389971,731.491741900998,731.9918199690001,731.491741900998,None,0,152,0,None,None,10,001,exponential,gyrb,0.75-0.35,2021_May_19_1045,color_judgement_and_subjective_perception,2020.2.10,60.021118070202796,
0,0.75,testing,1000,1,,,,,,,,,0,0,0,0,,,,,10,3,43,0,732.5919812189968,None,d,0.5379324069981521,732.6920187169999,None,732.091696776999,732.5085292080003,733.2585721959986,733.7428302549997,733.2585721959986,None,0,152,0,None,None,10,001,exponential,gyrb,0.75-0.35,2021_May_19_1045,color_judgement_and_subjective_perception,2020.2.10,60.021118070202796,
3,0.75,testing,1000,1,,,,,,,,,0,0,0,0,,,,,11,0,44,3,734.3428809500001,None,k,0.41093202399861184,734.4428505199976,None,733.8426777729983,734.2596178089989,734.8762823069992,735.3764563629993,734.8762823069992,None,0,0,138,None,None,10,001,exponential,gyrb,0.75-0.35,2021_May_19_1045,color_judgement_and_subjective_perception,2020.2.10,60.021118070202796,
2,0.75,testing,1000,1,,,,,,,,,0,0,0,0,,,,,11,1,45,2,735.976742846,None,j,0.4414202830012073,736.0764513229988,None,735.4762303099997,735.8932766899998,736.5431847299988,737.0434048319985,736.5431847299988,None,112,37,0,None,None,10,001,exponential,gyrb,0.75-0.35,2021_May_19_1045,color_judgement_and_subjective_perception,2020.2.10,60.021118070202796,
3,0.75,testing,1000,1,,,,,,,,,0,0,0,0,,,,,11,2,46,3,737.6435005719977,None,k,0.4623355479998281,737.7435181509973,None,737.143247197997,737.5601304169977,738.2267569709984,738.7111810409988,738.2267569709984,None,0,0,135,None,None,10,001,exponential,gyrb,0.75-0.35,2021_May_19_1045,color_judgement_and_subjective_perception,2020.2.10,60.021118070202796,
1,0.75,testing,1000,1,,,,,,,,,0,0,0,0,,,,,11,3,47,1,739.311318688,None,d,0.49870332699720166,739.4111970259983,None,738.811029258999,739.227936506999,739.9296296649991,740.428118030999,739.9296296649991,None,126,126,0,None,None,10,001,exponential,gyrb,0.75-0.35,2021_May_19_1045,color_judgement_and_subjective_perception,2020.2.10,60.021118070202796,
1,0.75,testing,1000,1,,,,,,,,,0,0,0,0,,,,,12,0,48,1,741.0282620699982,None,f,0.397517486999277,741.1283536029987,None,740.5279012259998,740.944971572997,741.5467615139969,742.0449103649989,741.5467615139969,None,128,128,0,None,None,10,001,exponential,gyrb,0.75-0.35,2021_May_19_1045,color_judgement_and_subjective_perception,2020.2.10,60.021118070202796,
0,0.75,testing,1000,1,,,,,,,,,0,0,0,0,,,,,12,1,49,0,742.6450823839987,None,d,0.5888163070012524,742.7450600229968,None,742.144849641998,742.5617139399983,743.3617361179968,743.846156323998,743.3617361179968,None,0,149,0,None,None,10,001,exponential,gyrb,0.75-0.35,2021_May_19_1045,color_judgement_and_subjective_perception,2020.2.10,60.021118070202796,
2,0.75,testing,1000,1,,,,,,,,,0,0,0,0,,,,,12,2,50,2,744.4461203739993,None,j,0.4117046700011997,744.546160594,None,743.9460196569999,744.3627978539989,744.9793646379985,745.4796749769994,744.9793646379985,None,108,36,0,None,None,10,001,exponential,gyrb,0.75-0.35,2021_May_19_1045,color_judgement_and_subjective_perception,2020.2.10,60.021118070202796,
0,0.75,testing,1000,1,,,,,,,,,0,0,0,0,,,,,12,3,51,0,746.0798700199994,None,d,0.48996984100085683,746.1799013989985,None,745.5795877109995,745.996541687,746.6963190949973,747.1966809039986,746.6963190949973,None,0,146,0,None,None,10,001,exponential,gyrb,0.75-0.35,2021_May_19_1045,color_judgement_and_subjective_perception,2020.2.10,60.021118070202796,
2,0.75,testing,1000,1,,,,,,,,,0,0,0,0,,,,,13,0,52,2,747.7966343859989,None,k,0.40512390000003506,747.8967444289992,None,747.2964319329985,747.7134018679972,748.3317665939976,748.8144640350001,748.3317665939976,None,105,35,0,None,None,10,001,exponential,gyrb,0.75-0.35,2021_May_19_1045,color_judgement_and_subjective_perception,2020.2.10,60.021118070202796,
3,0.75,testing,1000,1,,,,,,,,,0,0,0,0,,,,,13,1,53,3,749.4143988519972,None,k,0.7314204139984213,749.5144484589982,None,748.9141983749978,749.330949717998,750.266306104997,750.7647992249986,750.266306104997,None,0,0,131,None,None,10,001,exponential,gyrb,0.75-0.35,2021_May_19_1045,color_judgement_and_subjective_perception,2020.2.10,60.021118070202796,
3,0.75,testing,1000,1,,,,,,,,,0,0,0,0,,,,,13,2,54,3,751.3648460039985,None,k,0.4210786340008781,751.4648177939998,None,750.8645442829984,751.2814773879982,751.9146851849982,752.4149769109972,751.9146851849982,None,0,0,129,None,None,10,001,exponential,gyrb,0.75-0.35,2021_May_19_1045,color_judgement_and_subjective_perception,2020.2.10,60.021118070202796,
3,0.75,testing,1000,1,,,,,,,,,0,0,0,0,,,,,13,3,55,3,753.0151328899992,None,k,0.4587943249971431,753.1150504359975,None,752.5147096429973,752.9316163269978,753.5990924769976,754.0992210139993,753.5990924769976,None,0,0,127,None,None,10,001,exponential,gyrb,0.75-0.35,2021_May_19_1045,color_judgement_and_subjective_perception,2020.2.10,60.021118070202796,
1,0.75,testing,1000,1,,,,,,,,,0,0,0,0,,,,,14,0,56,1,754.6993658799984,None,d,0.5105689939991862,754.799355682997,None,754.1989880779984,754.6161324919995,755.3343033439996,755.8329386499972,755.3343033439996,None,123,123,0,None,None,10,001,exponential,gyrb,0.75-0.35,2021_May_19_1045,color_judgement_and_subjective_perception,2020.2.10,60.021118070202796,
1,0.75,testing,1000,1,,,,,,,,,0,0,0,0,,,,,14,1,57,1,756.4330938799976,None,f,0.5448016010013816,756.5330817369977,None,755.9328810039988,756.3495580029994,757.1010938829968,757.5998223269999,757.1010938829968,None,125,125,0,None,None,10,001,exponential,gyrb,0.75-0.35,2021_May_19_1045,color_judgement_and_subjective_perception,2020.2.10,60.021118070202796,
2,0.75,testing,1000,1,,,,,,,,,0,0,0,0,,,,,14,2,58,2,758.1999637529989,None,k,0.4739556509994145,758.2999183369975,None,757.6996019869985,758.116366708,758.8025407749992,759.3008782439974,758.8025407749992,None,106,35,0,None,None,10,001,exponential,gyrb,0.75-0.35,2021_May_19_1045,color_judgement_and_subjective_perception,2020.2.10,60.021118070202796,
2,0.75,testing,1000,1,,,,,,,,,0,0,0,0,,,,,14,3,59,2,759.900952087999,None,j,0.4287453379984072,760.0011467599979,None,759.4005684019976,759.8175674319973,760.4524507429996,760.9513720899995,760.4524507429996,None,108,36,0,None,None,10,001,exponential,gyrb,0.75-0.35,2021_May_19_1045,color_judgement_and_subjective_perception,2020.2.10,60.021118070202796,
2,0.75,testing,1000,1,,,,,,,,,0,0,0,0,,,,,15,0,60,2,761.5512742949977,None,j,0.32249504100036575,761.6513643339968,None,761.0511576309982,761.4679964379975,762.0012465369982,762.5014551029999,762.0012465369982,None,110,37,0,None,None,10,001,exponential,gyrb,0.75-0.35,2021_May_19_1045,color_judgement_and_subjective_perception,2020.2.10,60.021118070202796,
