color_idx_ind,target_acc,mode,response_deadline,block_number,trials_training.thisRepN,trials_training.thisTrialN,trials_training.thisN,trials_training.thisIndex,trials_training_deadline.thisRepN,trials_training_deadline.thisTrialN,trials_training_deadline.thisN,trials_training_deadline.thisIndex,blocks.thisRepN,blocks.thisTrialN,blocks.thisN,blocks.thisIndex,trials_staircase.thisRepN,trials_staircase.thisTrialN,trials_staircase.thisN,trials_staircase.thisIndex,trials.thisRepN,trials.thisTrialN,trials.thisN,trials.thisIndex,stimulus_ind.started,stimulus_ind.stopped,key_resp_ind.keys,key_resp_ind.rt,key_resp_ind.started,key_resp_ind.stopped,fixation_cross_1_ind.started,fixation_cross_1_ind.stopped,text.started,text.stopped,dummy_text.started,dummy_text.stopped,stim_ind_color_rgb_r,stim_ind_color_rgb_g,stim_ind_color_rgb_b,text_break_block.started,text_break_block.stopped,participant,session,accuracy_weighting,color_mapping,block_difficulties,date,expName,psychopyVersion,frameRate,
0,0.9,training,1000000000000,,0,0,0,0,,,,,,,,,,,,,,,,,82.64593862199763,None,d,1.065570224000112,82.74598030099878,None,82.14665586000046,82.5627147799969,83.8314696769994,84.28733472800013,83.8314696769994,None,,,,,,11,001,exponential,gyrb,0.35-0.75,2021_May_19_1305,color_judgement_and_subjective_perception,2020.2.10,60.10826761253875,
2,0.9,training,1000000000000,,0,1,1,1,,,,,,,,,,,,,,,,,84.86309465599697,None,j,0.8724671790005232,84.96310452899706,None,84.36141060099908,84.7797805299997,85.85167748999811,86.22979285399924,85.85167748999811,None,,,,,,11,001,exponential,gyrb,0.35-0.75,2021_May_19_1305,color_judgement_and_subjective_perception,2020.2.10,60.10826761253875,
3,0.9,training,1000000000000,,0,2,2,2,,,,,,,,,,,,,,,,,86.82996124899728,None,k,0.5776006429987319,86.91385985899979,None,86.32974144299806,86.74648444799823,87.51396214600027,88.01403496199782,87.51396214600027,None,,,,,,11,001,exponential,gyrb,0.35-0.75,2021_May_19_1305,color_judgement_and_subjective_perception,2020.2.10,60.10826761253875,
2,0.9,training,1000000000000,,0,3,3,3,,,,,,,,,,,,,,,,,88.61427324399847,None,j,0.8333042899976135,88.71430029899784,None,88.11403264099863,88.53078848099904,89.56422508499963,90.06436892199781,89.56422508499963,None,,,,,,11,001,exponential,gyrb,0.35-0.75,2021_May_19_1305,color_judgement_and_subjective_perception,2020.2.10,60.10826761253875,
1,0.9,training,1000000000000,,0,4,4,4,,,,,,,,,,,,,,,,,90.66444409299947,None,f,0.4630088539997814,90.76457883299736,None,90.16440267299913,90.58116697399964,91.24777117999838,91.74793637699986,91.24777117999838,None,,,,,,11,001,exponential,gyrb,0.35-0.75,2021_May_19_1305,color_judgement_and_subjective_perception,2020.2.10,60.10826761253875,
3,0.9,training,1000000000000,,0,5,5,5,,,,,,,,,,,,,,,,,92.33243016699998,None,k,0.5073173099990527,92.43226926199713,None,91.84667290299694,92.2488885169987,92.965543798,93.46565133999684,92.965543798,None,,,,,,11,001,exponential,gyrb,0.35-0.75,2021_May_19_1305,color_judgement_and_subjective_perception,2020.2.10,60.10826761253875,
1,0.9,training,1000000000000,,0,6,6,6,,,,,,,,,,,,,,,,,94.06581805399765,None,f,1.1335112500019022,94.16594811599862,None,93.56561621899891,93.98255076100031,95.33247628699974,95.83276072399894,95.33247628699974,None,,,,,,11,001,exponential,gyrb,0.35-0.75,2021_May_19_1305,color_judgement_and_subjective_perception,2020.2.10,60.10826761253875,
3,0.9,training,1000000000000,,0,7,7,7,,,,,,,,,,,,,,,,,96.43284116900031,None,k,0.806715938000707,96.53287614799774,None,95.93270958299763,96.34948949599857,97.36701000599714,97.86717867999687,97.36701000599714,None,,,,,,11,001,exponential,gyrb,0.35-0.75,2021_May_19_1305,color_judgement_and_subjective_perception,2020.2.10,60.10826761253875,
0,0.9,training,1000000000000,,0,8,8,8,,,,,,,,,,,,,,,,,98.46717337099835,None,d,0.3401405139993585,98.56741443899955,None,97.96716307599854,98.38392168499922,98.9339618390004,99.43427068999881,98.9339618390004,None,,,,,,11,001,exponential,gyrb,0.35-0.75,2021_May_19_1305,color_judgement_and_subjective_perception,2020.2.10,60.10826761253875,
1,0.9,training,1000000000000,,0,9,9,9,,,,,,,,,,,,,,,,,100.03417893599908,None,f,0.6374452809977811,100.13413619899802,None,99.53427032999753,99.95096562499748,100.80096707999837,101.30121212299855,100.80096707999837,None,,,,,,11,001,exponential,gyrb,0.35-0.75,2021_May_19_1305,color_judgement_and_subjective_perception,2020.2.10,60.10826761253875,
0,0.9,training,1000000000000,,0,10,10,10,,,,,,,,,,,,,,,,,101.88548861699746,None,d,0.6501636100001633,101.98531169799753,None,101.40106693499911,101.81787427399831,102.66857885699937,103.16883148399938,102.66857885699937,None,,,,,,11,001,exponential,gyrb,0.35-0.75,2021_May_19_1305,color_judgement_and_subjective_perception,2020.2.10,60.10826761253875,
3,0.9,training,1000000000000,,0,11,11,11,,,,,,,,,,,,,,,,,103.76895528000023,None,k,0.37452871200002846,103.86904258799768,None,103.26877399399746,103.68564193599741,104.26888102399971,104.76921375599704,104.26888102399971,None,,,,,,11,001,exponential,gyrb,0.35-0.75,2021_May_19_1305,color_judgement_and_subjective_perception,2020.2.10,60.10826761253875,
2,0.9,training,1000000000000,,0,12,12,12,,,,,,,,,,,,,,,,,105.36919324499831,None,j,0.2064198949992715,105.4691618939978,None,104.86904549899918,105.28594597199844,105.7026744399991,106.20264448799935,105.7026744399991,None,,,,,,11,001,exponential,gyrb,0.35-0.75,2021_May_19_1305,color_judgement_and_subjective_perception,2020.2.10,60.10826761253875,
3,0.9,training,1000000000000,,0,13,13,13,,,,,,,,,,,,,,,,,106.80275202799749,None,k,0.388511858000129,106.88706484199793,None,106.3026503330002,106.71935817299891,107.3035779799975,107.80360559899782,107.3035779799975,None,,,,,,11,001,exponential,gyrb,0.35-0.75,2021_May_19_1305,color_judgement_and_subjective_perception,2020.2.10,60.10826761253875,
1,0.9,training,1000000000000,,0,14,14,14,,,,,,,,,,,,,,,,,108.40392461499869,None,f,0.2758002240007045,108.50381489499705,None,107.90379675499935,108.32050745999732,108.80374785599997,109.30411693499991,108.80374785599997,None,,,,,,11,001,exponential,gyrb,0.35-0.75,2021_May_19_1305,color_judgement_and_subjective_perception,2020.2.10,60.10826761253875,
2,0.9,training,1000000000000,,0,15,15,15,,,,,,,,,,,,,,,,,109.90419858599853,None,k,0.38340012000116985,110.00413617799859,None,109.40390861099877,109.82086014899687,110.4044743409977,110.90439324099862,110.4044743409977,None,,,,,,11,001,exponential,gyrb,0.35-0.75,2021_May_19_1305,color_judgement_and_subjective_perception,2020.2.10,60.10826761253875,
0,0.9,training,1000000000000,,0,16,16,16,,,,,,,,,,,,,,,,,111.50430059299833,None,d,0.8151240320003126,111.60444791199916,None,111.00410432699937,111.42093533699881,112.43858945999818,112.93871262399989,112.43858945999818,None,,,,,,11,001,exponential,gyrb,0.35-0.75,2021_May_19_1305,color_judgement_and_subjective_perception,2020.2.10,60.10826761253875,
2,0.9,training,1000000000000,,0,17,17,17,,,,,,,,,,,,,,,,,113.53884701799689,None,j,0.5167533079984423,113.63873193099789,None,113.03869660800046,113.45548000899726,114.17208815199774,114.67243058199892,114.17208815199774,None,,,,,,11,001,exponential,gyrb,0.35-0.75,2021_May_19_1305,color_judgement_and_subjective_perception,2020.2.10,60.10826761253875,
0,0.9,training,1000000000000,,0,18,18,18,,,,,,,,,,,,,,,,,115.27238134599975,None,d,1.1669506459984405,115.37252978099787,None,114.7724151179973,115.1891618539994,116.57251543699749,117.05681085799733,116.57251543699749,None,,,,,,11,001,exponential,gyrb,0.35-0.75,2021_May_19_1305,color_judgement_and_subjective_perception,2020.2.10,60.10826761253875,
2,0.9,training,1000000000000,,0,19,19,19,,,,,,,,,,,,,,,,,117.65686073399775,None,j,0.6307840360022965,117.75680066299901,None,117.15678274200036,117.57343998099896,118.40698064899698,118.90713630499886,118.40698064899698,None,,,,,,11,001,exponential,gyrb,0.35-0.75,2021_May_19_1305,color_judgement_and_subjective_perception,2020.2.10,60.10826761253875,
3,0.9,training,1000000000000,,0,20,20,20,,,,,,,,,,,,,,,,,119.50722931999917,None,k,0.4684115310010384,119.6071783389998,None,119.00715339499948,119.42400294099934,120.10704398599773,120.60737634899851,120.10704398599773,None,,,,,,11,001,exponential,gyrb,0.35-0.75,2021_May_19_1305,color_judgement_and_subjective_perception,2020.2.10,60.10826761253875,
0,0.9,training,1000000000000,,0,21,21,21,,,,,,,,,,,,,,,,,121.20738061899829,None,d,0.2560825040018244,121.30747025599703,None,120.70741851899948,121.12416112199935,121.5907925859974,122.07515779999812,121.5907925859974,None,,,,,,11,001,exponential,gyrb,0.35-0.75,2021_May_19_1305,color_judgement_and_subjective_perception,2020.2.10,60.10826761253875,
1,0.9,training,1000000000000,,0,22,22,22,,,,,,,,,,,,,,,,,122.67511585600005,None,f,0.23649252700124634,122.7750646200002,None,122.17511637999996,122.59187639399897,123.0418758579981,123.54198379599984,123.0418758579981,None,,,,,,11,001,exponential,gyrb,0.35-0.75,2021_May_19_1305,color_judgement_and_subjective_perception,2020.2.10,60.10826761253875,
2,0.9,training,1000000000000,,0,23,23,23,,,,,,,,,,,,,,,,,124.14220385599765,None,j,0.2173194599999988,124.24217771499752,None,123.6418844990003,124.0588918709982,124.49205825299941,124.99216491900006,124.49205825299941,None,,,,,,11,001,exponential,gyrb,0.35-0.75,2021_May_19_1305,color_judgement_and_subjective_perception,2020.2.10,60.10826761253875,
3,0.9,training,1000000000000,,0,24,24,24,,,,,,,,,,,,,,,,,125.5922265429981,None,k,0.43134930100131896,125.6922121159987,None,125.09213349999845,125.50889018499947,126.14222836899717,126.64216922199921,126.14222836899717,None,,,,,,11,001,exponential,gyrb,0.35-0.75,2021_May_19_1305,color_judgement_and_subjective_perception,2020.2.10,60.10826761253875,
0,0.9,training,1000000000000,,0,25,25,25,,,,,,,,,,,,,,,,,127.226646805997,None,d,0.6927801300007559,127.32678757399844,None,126.74247624299824,127.1433954239983,128.04339144299956,128.54358282999965,128.04339144299956,None,,,,,,11,001,exponential,gyrb,0.35-0.75,2021_May_19_1305,color_judgement_and_subjective_perception,2020.2.10,60.10826761253875,
1,0.9,training,1000000000000,,0,26,26,26,,,,,,,,,,,,,,,,,129.14368521699726,None,f,0.2319482959974266,129.24367999899914,None,128.64351436200013,129.0604079099976,129.4937807259994,129.99389241699828,129.4937807259994,None,,,,,,11,001,exponential,gyrb,0.35-0.75,2021_May_19_1305,color_judgement_and_subjective_perception,2020.2.10,60.10826761253875,
3,0.9,training,1000000000000,,0,27,27,27,,,,,,,,,,,,,,,,,130.5938485279985,None,k,0.533483569000964,130.69400533299995,None,130.0938649719974,130.51052135999998,131.26061097099955,131.76071665400013,131.26061097099955,None,,,,,,11,001,exponential,gyrb,0.35-0.75,2021_May_19_1305,color_judgement_and_subjective_perception,2020.2.10,60.10826761253875,
1,0.9,training,1000000000000,,0,28,28,28,,,,,,,,,,,,,,,,,132.34505586199884,None,d,0.3106405629987421,132.44485606799935,None,131.8592482690001,132.26175447199785,132.7785624749995,133.2785565719969,132.7785624749995,None,,,,,,11,001,exponential,gyrb,0.35-0.75,2021_May_19_1305,color_judgement_and_subjective_perception,2020.2.10,60.10826761253875,
2,0.9,training,1000000000000,,0,29,29,29,,,,,,,,,,,,,,,,,133.87863393899897,None,j,0.47304697199797374,133.97854165099852,None,133.3782978950003,133.79519444099788,134.4785994269987,134.97869455999898,134.4785994269987,None,,,,,,11,001,exponential,gyrb,0.35-0.75,2021_May_19_1305,color_judgement_and_subjective_perception,2020.2.10,60.10826761253875,
0,0.9,training,1000000000000,,0,30,30,30,,,,,,,,,,,,,,,,,135.57877566499883,None,d,0.5967666389988153,135.67881375599973,None,135.07867337199787,135.4954773669997,136.295575033997,136.79563717099882,136.295575033997,None,,,,,,11,001,exponential,gyrb,0.35-0.75,2021_May_19_1305,color_judgement_and_subjective_perception,2020.2.10,60.10826761253875,
1,0.9,training,1000000000000,,0,31,31,31,,,,,,,,,,,,,,,,,137.3799446519988,None,f,0.20364739399883547,137.47991901999922,None,136.881503280998,137.29673687899776,137.71331932300018,138.21338786699926,137.71331932300018,None,,,,,,11,001,exponential,gyrb,0.35-0.75,2021_May_19_1305,color_judgement_and_subjective_perception,2020.2.10,60.10826761253875,
3,0.9,training,1000,,,,,,0,0,0,0,,,,,,,,,,,,,142.114883809998,None,k,0.3485779869988619,142.21500307799943,None,141.63302375299827,142.03155131200037,142.58139361299982,143.0816546049973,142.58139361299982,None,,,,,,11,001,exponential,gyrb,0.35-0.75,2021_May_19_1305,color_judgement_and_subjective_perception,2020.2.10,60.10826761253875,
1,0.9,training,1000,,,,,,0,1,1,1,,,,,,,,,,,,,143.68176278600004,None,f,0.34971643799872254,143.78183731199897,None,143.18159215099877,143.59832968800038,144.14843156499774,144.64861152799858,144.14843156499774,None,,,,,,11,001,exponential,gyrb,0.35-0.75,2021_May_19_1305,color_judgement_and_subjective_perception,2020.2.10,60.10826761253875,
2,0.9,training,1000,,,,,,0,2,2,2,,,,,,,,,,,,,145.248616932,None,j,0.31892017599966493,145.34864605399707,None,144.7486119669993,145.16523513199718,145.69850814299934,146.19875942999715,145.69850814299934,None,,,,,,11,001,exponential,gyrb,0.35-0.75,2021_May_19_1305,color_judgement_and_subjective_perception,2020.2.10,60.10826761253875,
1,0.9,training,1000,,,,,,0,3,3,3,,,,,,,,,,,,,146.7989762929974,None,f,0.4243223269986629,146.88324327699956,None,146.2987825249984,146.71536704999744,147.33281678300045,147.83309493199704,147.33281678300045,None,,,,,,11,001,exponential,gyrb,0.35-0.75,2021_May_19_1305,color_judgement_and_subjective_perception,2020.2.10,60.10826761253875,
3,0.9,training,1000,,,,,,0,4,4,4,,,,,,,,,,,,,148.43323124199742,None,k,0.30226042099820916,148.5333268180002,None,147.9331332820002,148.34993084899907,148.86645727499854,149.3668712969993,148.86645727499854,None,,,,,,11,001,exponential,gyrb,0.35-0.75,2021_May_19_1305,color_judgement_and_subjective_perception,2020.2.10,60.10826761253875,
2,0.9,training,1000,,,,,,0,5,5,5,,,,,,,,,,,,,149.96684432300026,None,j,0.44879067500005476,150.06675686099697,None,149.4669040239969,149.88336188599715,150.53349729500042,151.0335472029983,150.53349729500042,None,,,,,,11,001,exponential,gyrb,0.35-0.75,2021_May_19_1305,color_judgement_and_subjective_perception,2020.2.10,60.10826761253875,
3,0.9,training,1000,,,,,,0,6,6,6,,,,,,,,,,,,,151.63381175599716,None,k,0.597841992002941,151.73371376999785,None,151.13353027599806,151.5505287220003,152.35129868500007,152.85146730599809,152.35129868500007,None,,,,,,11,001,exponential,gyrb,0.35-0.75,2021_May_19_1305,color_judgement_and_subjective_perception,2020.2.10,60.10826761253875,
0,0.9,training,1000,,,,,,0,7,7,7,,,,,,,,,,,,,153.45148528299978,None,d,0.396082564999233,153.5514943950002,None,152.9512940459972,153.36814290199982,153.96827939799914,154.46849740099788,153.96827939799914,None,,,,,,11,001,exponential,gyrb,0.35-0.75,2021_May_19_1305,color_judgement_and_subjective_perception,2020.2.10,60.10826761253875,
1,0.9,training,1000,,,,,,0,8,8,8,,,,,,,,,,,,,155.06850134399792,None,f,0.2512066279996361,155.16836586899808,None,154.56839391999893,154.9849485559971,155.45153160399786,155.95188976399731,155.45153160399786,None,,,,,,11,001,exponential,gyrb,0.35-0.75,2021_May_19_1305,color_judgement_and_subjective_perception,2020.2.10,60.10826761253875,
0,0.9,training,1000,,,,,,0,9,9,9,,,,,,,,,,,,,156.55197750499792,None,j,0.4476344459981192,156.65194072499798,None,156.0518440679989,156.46872527199957,157.11945156900038,157.6195814169987,157.11945156900038,None,,,,,,11,001,exponential,gyrb,0.35-0.75,2021_May_19_1305,color_judgement_and_subjective_perception,2020.2.10,60.10826761253875,
2,0.9,training,1000,,,,,,0,10,10,10,,,,,,,,,,,,,158.2197462410004,None,j,0.4598248660004174,158.31973907599968,None,157.71946416799983,158.13637562099757,158.80303547199946,159.3034076039985,158.80303547199946,None,,,,,,11,001,exponential,gyrb,0.35-0.75,2021_May_19_1305,color_judgement_and_subjective_perception,2020.2.10,60.10826761253875,
3,0.9,training,1000,,,,,,0,11,11,11,,,,,,,,,,,,,159.9034437070004,None,k,0.35226499599957606,160.0032938919976,None,159.40341900099884,159.82005830499838,160.3865246869973,160.88684798399845,160.3865246869973,None,,,,,,11,001,exponential,gyrb,0.35-0.75,2021_May_19_1305,color_judgement_and_subjective_perception,2020.2.10,60.10826761253875,
0,0.9,training,1000,,,,,,0,12,12,12,,,,,,,,,,,,,161.48691269299889,None,d,0.42467152700191946,161.58691395200003,None,160.9867564769993,161.4034115689974,162.03772975500033,162.53801493599894,162.03772975500033,None,,,,,,11,001,exponential,gyrb,0.35-0.75,2021_May_19_1305,color_judgement_and_subjective_perception,2020.2.10,60.10826761253875,
2,0.9,training,1000,,,,,,0,13,13,13,,,,,,,,,,,,,163.13801102599973,None,j,0.4774357290007174,163.23806557299758,None,162.637883288,163.05455785099912,163.7380096179986,164.23829977399873,163.7380096179986,None,,,,,,11,001,exponential,gyrb,0.35-0.75,2021_May_19_1305,color_judgement_and_subjective_perception,2020.2.10,60.10826761253875,
1,0.9,training,1000,,,,,,0,14,14,14,,,,,,,,,,,,,164.8382731629972,None,f,0.4414171370008262,164.93816574499942,None,164.33801923099963,164.7550424309993,165.40469217999998,165.90509251099866,165.40469217999998,None,,,,,,11,001,exponential,gyrb,0.35-0.75,2021_May_19_1305,color_judgement_and_subjective_perception,2020.2.10,60.10826761253875,
0,0.9,training,1000,,,,,,0,15,15,15,,,,,,,,,,,,,166.5052114809987,None,d,0.4144491850020131,166.60513437199916,None,166.00498735699875,166.42187838899918,167.03946163799992,167.53942196199932,167.03946163799992,None,,,,,,11,001,exponential,gyrb,0.35-0.75,2021_May_19_1305,color_judgement_and_subjective_perception,2020.2.10,60.10826761253875,
1,0.9,training,1000,,,,,,0,16,16,16,,,,,,,,,,,,,168.13945276099912,None,f,0.4439329329979955,168.23952713199833,None,167.63947420299883,168.0562832809992,168.70622488699883,169.20651852099763,168.70622488699883,None,,,,,,11,001,exponential,gyrb,0.35-0.75,2021_May_19_1305,color_judgement_and_subjective_perception,2020.2.10,60.10826761253875,
3,0.9,training,1000,,,,,,0,17,17,17,,,,,,,,,,,,,169.80656296899906,None,k,0.4890271580006811,169.90655760499794,None,169.30641445899892,169.72334007799873,170.42301198199857,170.92330193399903,170.42301198199857,None,,,,,,11,001,exponential,gyrb,0.35-0.75,2021_May_19_1305,color_judgement_and_subjective_perception,2020.2.10,60.10826761253875,
0,0.9,training,1000,,,,,,0,18,18,18,,,,,,,,,,,,,171.52341596899714,None,d,0.41201112600174383,171.6234743519999,None,171.02328291999947,171.4400480439981,172.05770107499848,172.5576996339987,172.05770107499848,None,,,,,,11,001,exponential,gyrb,0.35-0.75,2021_May_19_1305,color_judgement_and_subjective_perception,2020.2.10,60.10826761253875,
2,0.9,training,1000,,,,,,0,19,19,19,,,,,,,,,,,,,173.1577123069983,None,j,0.4576336819991411,173.25792614699822,None,172.6575929999999,173.07444333499734,173.74102022999796,174.24135491499692,173.74102022999796,None,,,,,,11,001,exponential,gyrb,0.35-0.75,2021_May_19_1305,color_judgement_and_subjective_perception,2020.2.10,60.10826761253875,
1,0.9,training,1000,,,,,,0,20,20,20,,,,,,,,,,,,,174.84165652999945,None,f,0.38205888800075627,174.94149257000026,None,174.34137534099864,174.75822787399738,175.34135055499792,175.84164103999865,175.34135055499792,None,,,,,,11,001,exponential,gyrb,0.35-0.75,2021_May_19_1305,color_judgement_and_subjective_perception,2020.2.10,60.10826761253875,
3,0.9,training,1000,,,,,,0,21,21,21,,,,,,,,,,,,,176.44179283599806,None,k,0.3897579559998121,176.54182480099917,None,175.94152911299898,176.35834812899702,176.95915285400042,177.45925149699906,176.95915285400042,None,,,,,,11,001,exponential,gyrb,0.35-0.75,2021_May_19_1305,color_judgement_and_subjective_perception,2020.2.10,60.10826761253875,
0,0.9,training,1000,,,,,,0,22,22,22,,,,,,,,,,,,,178.0593428409993,None,f,0.484135727998364,178.1593731599969,None,177.55937879299745,177.97605208499954,178.67581765799696,179.1763980279975,178.67581765799696,None,,,,,,11,001,exponential,gyrb,0.35-0.75,2021_May_19_1305,color_judgement_and_subjective_perception,2020.2.10,60.10826761253875,
2,0.9,training,1000,,,,,,0,23,23,23,,,,,,,,,,,,,179.7765097329975,None,j,0.5110427899999195,179.87644749299943,None,179.27625703099693,179.69300321599803,180.4095826599987,180.90981468599784,180.4095826599987,None,,,,,,11,001,exponential,gyrb,0.35-0.75,2021_May_19_1305,color_judgement_and_subjective_perception,2020.2.10,60.10826761253875,
0,0.9,training,1000,,,,,,0,24,24,24,,,,,,,,,,,,,181.51014089899763,None,d,0.5375689129978127,181.60999614899993,None,181.00973788400006,181.42666059099793,182.17757958899892,182.67763916199692,182.17757958899892,None,,,,,,11,001,exponential,gyrb,0.35-0.75,2021_May_19_1305,color_judgement_and_subjective_perception,2020.2.10,60.10826761253875,
1,0.9,training,1000,,,,,,0,25,25,25,,,,,,,,,,,,,183.27762730299946,None,f,0.32194386000264785,183.37763955899936,None,182.77755039099793,183.19429381299778,183.727527731,184.2280206079995,183.727527731,None,,,,,,11,001,exponential,gyrb,0.35-0.75,2021_May_19_1305,color_judgement_and_subjective_perception,2020.2.10,60.10826761253875,
0,0.9,training,1000,,,,,,0,26,26,26,,,,,,,,,,,,,184.8280143089978,None,d,0.4674592320006923,184.9281177499979,None,184.32792424299987,184.74468589499884,185.4278706160003,185.92811262599935,185.4278706160003,None,,,,,,11,001,exponential,gyrb,0.35-0.75,2021_May_19_1305,color_judgement_and_subjective_perception,2020.2.10,60.10826761253875,
1,0.9,training,1000,,,,,,0,27,27,27,,,,,,,,,,,,,186.52820810199773,None,f,0.3032921699996223,186.62824500699935,None,186.02803753099943,186.44482293699912,186.9621130279993,187.46250924999913,186.9621130279993,None,,,,,,11,001,exponential,gyrb,0.35-0.75,2021_May_19_1305,color_judgement_and_subjective_perception,2020.2.10,60.10826761253875,
2,0.9,training,1000,,,,,,0,28,28,28,,,,,,,,,,,,,188.06251630000042,None,j,0.39297679100127425,188.16259203299705,None,187.56230780899932,187.97925754099924,188.5792012469974,189.0792006479969,188.5792012469974,None,,,,,,11,001,exponential,gyrb,0.35-0.75,2021_May_19_1305,color_judgement_and_subjective_perception,2020.2.10,60.10826761253875,
3,0.9,training,1000,,,,,,0,29,29,29,,,,,,,,,,,,,189.67957558600028,None,k,0.22392452600252,189.77954964499804,None,189.17943203399773,189.59630382899923,190.02943039599995,190.52948624700002,190.02943039599995,None,,,,,,11,001,exponential,gyrb,0.35-0.75,2021_May_19_1305,color_judgement_and_subjective_perception,2020.2.10,60.10826761253875,
2,0.9,training,1000,,,,,,0,30,30,30,,,,,,,,,,,,,191.12968057399848,None,j,0.4218001609988278,191.22975287999725,None,190.6294229649975,191.0464461369993,191.67958762299895,192.16406454999742,191.67958762299895,None,,,,,,11,001,exponential,gyrb,0.35-0.75,2021_May_19_1305,color_judgement_and_subjective_perception,2020.2.10,60.10826761253875,
0,0.9,training,1000,,,,,,0,31,31,31,,,,,,,,,,,,,192.76674351600013,None,d,0.3315361640015908,192.86404650699842,None,192.2640083369988,192.68078414499905,193.21398917199986,193.71412864299782,193.21398917199986,None,,,,,,11,001,exponential,gyrb,0.35-0.75,2021_May_19_1305,color_judgement_and_subjective_perception,2020.2.10,60.10826761253875,
3,0.9,training,1000,,,,,,0,32,32,32,,,,,,,,,,,,,194.31432599699838,None,k,0.8290021909997449,194.41457556099704,None,193.81427656899905,194.23111389399855,195.26437322600032,195.76458342799742,195.26437322600032,None,,,,,,11,001,exponential,gyrb,0.35-0.75,2021_May_19_1305,color_judgement_and_subjective_perception,2020.2.10,60.10826761253875,
2,0.9,training,1000,,,,,,0,33,33,33,,,,,,,,,,,,,196.36473634399954,None,j,0.6348096879992227,196.46468937499958,None,195.86451931099873,196.281313184998,197.13215102699905,197.63227682199795,197.13215102699905,None,,,,,,11,001,exponential,gyrb,0.35-0.75,2021_May_19_1305,color_judgement_and_subjective_perception,2020.2.10,60.10826761253875,
1,0.9,training,1000,,,,,,0,34,34,34,,,,,,,,,,,,,198.23232003099838,None,f,0.5431814760013367,198.33242787899871,None,197.73233764999895,198.14897072500025,198.89920330599853,199.39944026000012,198.89920330599853,None,,,,,,11,001,exponential,gyrb,0.35-0.75,2021_May_19_1305,color_judgement_and_subjective_perception,2020.2.10,60.10826761253875,
3,0.9,training,1000,,,,,,0,35,35,35,,,,,,,,,,,,,199.99929027399776,None,k,0.41614220300107263,200.0994136019981,None,199.49923318400033,199.9160281839977,200.5326857339969,201.03287103299954,200.5326857339969,None,,,,,,11,001,exponential,gyrb,0.35-0.75,2021_May_19_1305,color_judgement_and_subjective_perception,2020.2.10,60.10826761253875,
0,0.9,training,1000,,,,,,0,36,36,36,,,,,,,,,,,,,201.63306059000024,None,d,0.4146669790025044,201.7328971379975,None,201.1326369069975,201.5495928909986,202.1671598699977,202.6672306099972,202.1671598699977,None,,,,,,11,001,exponential,gyrb,0.35-0.75,2021_May_19_1305,color_judgement_and_subjective_perception,2020.2.10,60.10826761253875,
2,0.9,training,1000,,,,,,0,37,37,37,,,,,,,,,,,,,203.26719263999985,None,j,0.42823622500145575,203.3673363659982,None,202.7672535169986,203.1839743950004,203.81732463699882,204.31767310299983,203.81732463699882,None,,,,,,11,001,exponential,gyrb,0.35-0.75,2021_May_19_1305,color_judgement_and_subjective_perception,2020.2.10,60.10826761253875,
3,0.9,training,1000,,,,,,0,38,38,38,,,,,,,,,,,,,204.91774651899686,None,k,0.3937682699979632,205.01777611999933,None,204.4175960629982,204.8342115279993,205.43419123700005,205.93448890499712,205.43419123700005,None,,,,,,11,001,exponential,gyrb,0.35-0.75,2021_May_19_1305,color_judgement_and_subjective_perception,2020.2.10,60.10826761253875,
1,0.9,training,1000,,,,,,0,39,39,39,,,,,,,,,,,,,206.53456587399705,None,f,0.6250977519994194,206.63446791099705,None,206.0343363289976,206.4512631079997,207.2853750510003,207.7855350289974,207.2853750510003,None,,,,,,11,001,exponential,gyrb,0.35-0.75,2021_May_19_1305,color_judgement_and_subjective_perception,2020.2.10,60.10826761253875,
0,0.9,training,1000,,,,,,0,40,40,40,,,,,,,,,,,,,208.3856332039977,None,d,0.42204312999820104,208.48553607400027,None,207.8854396679999,208.3023215189969,208.93557823899755,209.43592792999698,208.93557823899755,None,,,,,,11,001,exponential,gyrb,0.35-0.75,2021_May_19_1305,color_judgement_and_subjective_perception,2020.2.10,60.10826761253875,
3,0.9,training,1000,,,,,,0,41,41,41,,,,,,,,,,,,,210.0359675369982,None,k,0.6116091510011756,210.13596749699718,None,209.5359896789996,209.9526130459999,210.76910820699777,211.26944168999762,210.76910820699777,None,,,,,,11,001,exponential,gyrb,0.35-0.75,2021_May_19_1305,color_judgement_and_subjective_perception,2020.2.10,60.10826761253875,
0,0.9,training,1000,,,,,,0,42,42,42,,,,,,,,,,,,,211.8694842199984,None,d,0.6818101169992588,211.95376860299803,None,211.36943797999993,211.7861031809989,212.65367799399974,213.1536851469973,212.65367799399974,None,,,,,,11,001,exponential,gyrb,0.35-0.75,2021_May_19_1305,color_judgement_and_subjective_perception,2020.2.10,60.10826761253875,
1,0.9,training,1000,,,,,,0,43,43,43,,,,,,,,,,,,,213.7539632529988,None,f,0.3016387180032325,213.853943479,None,213.25366975900033,213.67067506199965,214.18720732599832,214.68759070399756,214.18720732599832,None,,,,,,11,001,exponential,gyrb,0.35-0.75,2021_May_19_1305,color_judgement_and_subjective_perception,2020.2.10,60.10826761253875,
2,0.9,training,1000,,,,,,0,44,44,44,,,,,,,,,,,,,215.28748905199973,None,j,0.25601940199703677,215.38755465400027,None,214.78743277499962,215.20419420799954,215.67073161099688,216.17095467999752,215.67073161099688,None,,,,,,11,001,exponential,gyrb,0.35-0.75,2021_May_19_1305,color_judgement_and_subjective_perception,2020.2.10,60.10826761253875,
3,0.9,training,1000,,,,,,0,45,45,45,,,,,,,,,,,,,216.7709720979983,None,k,0.37255360200288123,216.87103056900014,None,216.2709308739977,216.68784305900044,217.27209307199882,217.77185920099873,217.27209307199882,None,,,,,,11,001,exponential,gyrb,0.35-0.75,2021_May_19_1305,color_judgement_and_subjective_perception,2020.2.10,60.10826761253875,
1,0.9,training,1000,,,,,,0,46,46,46,,,,,,,,,,,,,218.37205381799868,None,f,0.6194483170002059,218.472141500999,None,217.8719398059984,218.28878681499918,219.12211117900006,219.62239913699887,219.12211117900006,None,,,,,,11,001,exponential,gyrb,0.35-0.75,2021_May_19_1305,color_judgement_and_subjective_perception,2020.2.10,60.10826761253875,
2,0.9,training,1000,,,,,,0,47,47,47,,,,,,,,,,,,,220.22251124899776,None,j,0.4891325850003341,220.32241854899985,None,219.7225900889971,220.13911359600024,220.8390708449988,221.33922605899716,220.8390708449988,None,,,,,,11,001,exponential,gyrb,0.35-0.75,2021_May_19_1305,color_judgement_and_subjective_perception,2020.2.10,60.10826761253875,
0,0.9,training,1000,,,,,,0,48,48,48,,,,,,,,,,,,,221.92358749999767,None,d,0.2200260880017595,222.0235675499971,None,221.4391672069978,221.8559349629977,222.27350583999942,222.77349230300024,222.27350583999942,None,,,,,,11,001,exponential,gyrb,0.35-0.75,2021_May_19_1305,color_judgement_and_subjective_perception,2020.2.10,60.10826761253875,
3,0.9,training,1000,,,,,,0,49,49,49,,,,,,,,,,,,,223.3737023499998,None,k,0.5697233029968629,223.47383565999917,None,222.87371009399794,223.29039516099874,224.07362702499813,224.574112282,224.07362702499813,None,,,,,,11,001,exponential,gyrb,0.35-0.75,2021_May_19_1305,color_judgement_and_subjective_perception,2020.2.10,60.10826761253875,
2,0.9,training,1000,,,,,,0,50,50,50,,,,,,,,,,,,,225.1741343199974,None,j,0.4333732009981759,225.27418042799763,None,224.67391016499823,225.09063171099842,225.74058361999778,226.24080065999806,225.74058361999778,None,,,,,,11,001,exponential,gyrb,0.35-0.75,2021_May_19_1305,color_judgement_and_subjective_perception,2020.2.10,60.10826761253875,
3,0.9,training,1000,,,,,,0,51,51,51,,,,,,,,,,,,,226.8410593109984,None,k,0.422285128999647,226.92530543199973,None,226.34077867700034,226.75757154099847,227.37519957599943,227.8751688049997,227.37519957599943,None,,,,,,11,001,exponential,gyrb,0.35-0.75,2021_May_19_1305,color_judgement_and_subjective_perception,2020.2.10,60.10826761253875,
1,0.9,training,1000,,,,,,0,52,52,52,,,,,,,,,,,,,228.45861292299742,None,j,0.29352516300059506,228.54207322799994,None,227.9750537539985,228.38333196999884,228.8586545779981,229.3589459199975,228.8586545779981,None,,,,,,11,001,exponential,gyrb,0.35-0.75,2021_May_19_1305,color_judgement_and_subjective_perception,2020.2.10,60.10826761253875,
3,0.9,training,1000,,,,,,0,53,53,53,,,,,,,,,,,,,229.95768479899925,None,k,0.5134556030025124,230.05013862299893,None,229.4588730100004,229.8756317269981,230.58277268299935,230.86958247299845,230.58277268299935,None,,,,,,11,001,exponential,gyrb,0.35-0.75,2021_May_19_1305,color_judgement_and_subjective_perception,2020.2.10,60.10826761253875,
2,0.9,training,1000,,,,,,0,54,54,54,,,,,,,,,,,,,231.21673185199688,None,None,-1,231.27414033899913,None,230.92921420199855,231.1680783499978,231.80299726500016,232.24330782099787,231.80299726500016,None,,,,,,11,001,exponential,gyrb,0.35-0.75,2021_May_19_1305,color_judgement_and_subjective_perception,2020.2.10,60.10826761253875,
0,0.9,training,1000,,,,,,0,55,55,55,,,,,,,,,,,,,232.84347927199997,None,d,0.3961241990000417,232.94345841599716,None,232.34347517199785,232.76000709899745,233.3600298679994,233.84246744199845,233.3600298679994,None,,,,,,11,001,exponential,gyrb,0.35-0.75,2021_May_19_1305,color_judgement_and_subjective_perception,2020.2.10,60.10826761253875,
3,0.9,training,1000,,,,,,0,56,56,56,,,,,,,,,,,,,234.41061550599989,None,j,0.2928003640008683,234.51075070799925,None,233.94231751400002,234.32714622399726,234.82715187199938,235.20159013800003,234.82715187199938,None,,,,,,11,001,exponential,gyrb,0.35-0.75,2021_May_19_1305,color_judgement_and_subjective_perception,2020.2.10,60.10826761253875,
0,0.9,training,1000,,,,,,0,57,57,57,,,,,,,,,,,,,235.5438129389986,None,None,-1,235.6014312849984,None,235.25911715099937,235.4950670420003,236.12702915599948,236.54405390600004,236.12702915599948,None,,,,,,11,001,exponential,gyrb,0.35-0.75,2021_May_19_1305,color_judgement_and_subjective_perception,2020.2.10,60.10826761253875,
3,0.9,training,1000,,,,,,0,58,58,58,,,,,,,,,,,,,237.12844175899954,None,k,0.29531875000247965,237.2282764349984,None,236.64400043099886,237.04484375299944,237.5448779949984,238.04502859199783,237.5448779949984,None,,,,,,11,001,exponential,gyrb,0.35-0.75,2021_May_19_1305,color_judgement_and_subjective_perception,2020.2.10,60.10826761253875,
1,0.9,training,1000,,,,,,0,59,59,59,,,,,,,,,,,,,238.64513536099912,None,f,0.37038435299837147,238.74517482199735,None,238.14489440499892,238.561900976998,239.14511143100026,239.645317565999,239.14511143100026,None,,,,,,11,001,exponential,gyrb,0.35-0.75,2021_May_19_1305,color_judgement_and_subjective_perception,2020.2.10,60.10826761253875,
0,0.9,training,1000,,,,,,0,60,60,60,,,,,,,,,,,,,240.24519031399905,None,d,0.2502068309986498,240.34525201999713,None,239.74537613499706,240.16211886399833,240.6286268599979,241.1289756139995,240.6286268599979,None,,,,,,11,001,exponential,gyrb,0.35-0.75,2021_May_19_1305,color_judgement_and_subjective_perception,2020.2.10,60.10826761253875,
0,0.9,training,1000,,,,,,0,61,61,61,,,,,,,,,,,,,241.72898338400046,None,f,0.35865419000037946,241.828929624,None,241.22881956399942,241.64566084599937,242.21286751299704,242.71333527399838,242.21286751299704,None,,,,,,11,001,exponential,gyrb,0.35-0.75,2021_May_19_1305,color_judgement_and_subjective_perception,2020.2.10,60.10826761253875,
0,0.9,training,1000,,,,,,0,62,62,62,,,,,,,,,,,,,243.31328332499834,None,d,0.2782498679989658,243.41333212599784,None,242.81310966999808,243.22997995199694,243.71323081899754,244.21354584299843,243.71323081899754,None,,,,,,11,001,exponential,gyrb,0.35-0.75,2021_May_19_1305,color_judgement_and_subjective_perception,2020.2.10,60.10826761253875,
1,0.9,training,1000,,,,,,0,63,63,63,,,,,,,,,,,,,244.81362874499973,None,f,0.22587806299998192,244.9136966929982,None,244.3135431419978,244.7303583449975,245.1634132170002,245.6636955239992,245.1634132170002,None,,,,,,11,001,exponential,gyrb,0.35-0.75,2021_May_19_1305,color_judgement_and_subjective_perception,2020.2.10,60.10826761253875,
2,0.9,training,1000,,,,,,0,64,64,64,,,,,,,,,,,,,246.2639102949979,None,j,0.17562211900076363,246.3639252719986,None,245.76372661499772,246.18052802300008,246.56362757399984,247.0483682669983,246.56362757399984,None,,,,,,11,001,exponential,gyrb,0.35-0.75,2021_May_19_1305,color_judgement_and_subjective_perception,2020.2.10,60.10826761253875,
3,0.9,training,1000,,,,,,0,65,65,65,,,,,,,,,,,,,247.64826704999723,None,k,0.2553114510010346,247.74827724399802,None,247.1481217829969,247.5647930979976,248.0312214009973,248.53163596800005,248.0312214009973,None,,,,,,11,001,exponential,gyrb,0.35-0.75,2021_May_19_1305,color_judgement_and_subjective_perception,2020.2.10,60.10826761253875,
3,0.9,training,1000,,,,,,0,66,66,66,,,,,,,,,,,,,249.13181123199683,None,d,0.3156248500017682,249.23193664299833,None,248.63139235499693,249.04845545599892,249.56504933199903,250.06527019499845,249.56504933199903,None,,,,,,11,001,exponential,gyrb,0.35-0.75,2021_May_19_1305,color_judgement_and_subjective_perception,2020.2.10,60.10826761253875,
2,0.9,training,1000,,,,,,0,67,67,67,,,,,,,,,,,,,250.66539587899751,None,j,0.406090808002773,250.76543864599807,None,250.16516720399886,250.58196428599695,251.19839954899726,251.69875638599842,251.19839954899726,None,,,,,,11,001,exponential,gyrb,0.35-0.75,2021_May_19_1305,color_judgement_and_subjective_perception,2020.2.10,60.10826761253875,
2,0.9,training,1000,,,,,,0,68,68,68,,,,,,,,,,,,,252.2830384939989,None,j,0.3163703770005668,252.3831988139973,None,251.79902876899723,252.19974483699843,252.7162405529998,253.21652043499853,252.7162405529998,None,,,,,,11,001,exponential,gyrb,0.35-0.75,2021_May_19_1305,color_judgement_and_subjective_perception,2020.2.10,60.10826761253875,
2,0.9,training,1000,,,,,,0,69,69,69,,,,,,,,,,,,,253.8166531129973,None,k,0.30287433799821883,253.91669046499737,None,253.31646288299817,253.73323145500035,254.2498934510004,254.75031152599695,254.2498934510004,None,,,,,,11,001,exponential,gyrb,0.35-0.75,2021_May_19_1305,color_judgement_and_subjective_perception,2020.2.10,60.10826761253875,
2,0.9,training,1000,,,,,,0,70,70,70,,,,,,,,,,,,,255.35019414999988,None,j,0.32143819599878043,255.45007134999832,None,254.85002716799863,255.26693475399952,255.80001834699942,256.3004197609989,255.80001834699942,None,,,,,,11,001,exponential,gyrb,0.35-0.75,2021_May_19_1305,color_judgement_and_subjective_perception,2020.2.10,60.10826761253875,
1,0.9,training,1000,,,,,,0,71,71,71,,,,,,,,,,,,,256.899186290997,None,f,0.4828402510029264,256.9847292459999,None,256.40049637799893,256.8169721509985,257.4845461980003,257.9846241999985,257.4845461980003,None,,,,,,11,001,exponential,gyrb,0.35-0.75,2021_May_19_1305,color_judgement_and_subjective_perception,2020.2.10,60.10826761253875,
1,0.9,training,1000,,,,,,0,72,72,72,,,,,,,,,,,,,258.58474103299886,None,f,0.3587326929991832,258.68484244999854,None,258.0846627110004,258.5014657489992,259.06810176900035,259.56849289899765,259.06810176900035,None,,,,,,11,001,exponential,gyrb,0.35-0.75,2021_May_19_1305,color_judgement_and_subjective_perception,2020.2.10,60.10826761253875,
0,0.9,training,1000,,,,,,0,73,73,73,,,,,,,,,,,,,260.16847670899733,None,d,0.3430414070026018,260.26850488799755,None,259.66820469199956,260.0850674609974,260.6350058459975,261.1352610979993,260.6350058459975,None,,,,,,11,001,exponential,gyrb,0.35-0.75,2021_May_19_1305,color_judgement_and_subjective_perception,2020.2.10,60.10826761253875,
3,0.9,training,1000,,,,,,0,74,74,74,,,,,,,,,,,,,261.7352637949989,None,j,0.34422439499758184,261.8353642559996,None,261.23514341199916,261.6519216009983,262.20275756099727,262.70292300299843,262.20275756099727,None,,,,,,11,001,exponential,gyrb,0.35-0.75,2021_May_19_1305,color_judgement_and_subjective_perception,2020.2.10,60.10826761253875,
2,0.9,training,1000,,,,,,0,75,75,75,,,,,,,,,,,,,263.30298869299804,None,j,0.4164931420018547,263.40309937299753,None,262.80292526799894,263.2197140899989,263.8363526659996,264.33673366699804,263.8363526659996,None,,,,,,11,001,exponential,gyrb,0.35-0.75,2021_May_19_1305,color_judgement_and_subjective_perception,2020.2.10,60.10826761253875,
2,0.9,training,1000,,,,,,0,76,76,76,,,,,,,,,,,,,264.93665436599986,None,j,0.2870304549978755,265.03655097799856,None,264.4366071529985,264.85332716399716,265.3532071089976,265.85323377999885,265.3532071089976,None,,,,,,11,001,exponential,gyrb,0.35-0.75,2021_May_19_1305,color_judgement_and_subjective_perception,2020.2.10,60.10826761253875,
1,0.9,training,1000,,,,,,0,77,77,77,,,,,,,,,,,,,266.4534297249993,None,f,0.35396517100161873,266.55358638100006,None,265.95338089600045,266.37015794800027,266.9236350149986,267.4211967889969,266.9236350149986,None,,,,,,11,001,exponential,gyrb,0.35-0.75,2021_May_19_1305,color_judgement_and_subjective_perception,2020.2.10,60.10826761253875,
1,0.9,training,1000,,,,,,0,78,78,78,,,,,,,,,,,,,268.0212593649994,None,f,0.33028044100137777,268.1212965849991,None,267.52123351499904,267.9379164999991,268.47123487299905,268.9714084499974,268.47123487299905,None,,,,,,11,001,exponential,gyrb,0.35-0.75,2021_May_19_1305,color_judgement_and_subjective_perception,2020.2.10,60.10826761253875,
2,0.9,training,1000,,,,,,0,79,79,79,,,,,,,,,,,,,269.5716074720003,None,j,0.3559545600001002,269.6716302899986,None,269.0713985339971,269.48832226599916,270.054680027999,270.55500090699934,270.054680027999,None,,,,,,11,001,exponential,gyrb,0.35-0.75,2021_May_19_1305,color_judgement_and_subjective_perception,2020.2.10,60.10826761253875,
0,0.9,training,1000,,,,,,0,80,80,80,,,,,,,,,,,,,271.15509214899794,None,f,0.3563946050016966,271.25516335700013,None,270.65488877999815,271.0716644339991,271.6383813889988,272.12287693199687,271.6383813889988,None,,,,,,11,001,exponential,gyrb,0.35-0.75,2021_May_19_1305,color_judgement_and_subjective_perception,2020.2.10,60.10826761253875,
1,0.9,training,1000,,,,,,0,81,81,81,,,,,,,,,,,,,272.7226942849993,None,f,0.4207248550010263,272.8228329659978,None,272.22252384199965,272.63940833000015,273.2726670739976,273.77283878699745,273.2726670739976,None,,,,,,11,001,exponential,gyrb,0.35-0.75,2021_May_19_1305,color_judgement_and_subjective_perception,2020.2.10,60.10826761253875,
1,0.9,training,1000,,,,,,0,82,82,82,,,,,,,,,,,,,274.3732231920003,None,f,0.3303798170018126,274.4732066509969,None,273.87290689899964,274.28989213599925,274.82303379699806,275.3232335699977,274.82303379699806,None,,,,,,11,001,exponential,gyrb,0.35-0.75,2021_May_19_1305,color_judgement_and_subjective_perception,2020.2.10,60.10826761253875,
1,0.9,training,1000,,,,,,0,83,83,83,,,,,,,,,,,,,275.92319303399927,None,f,0.1802774829993723,276.02329789099895,None,275.42320870500043,275.83998052899915,276.22312564299864,276.72336258699943,276.22312564299864,None,,,,,,11,001,exponential,gyrb,0.35-0.75,2021_May_19_1305,color_judgement_and_subjective_perception,2020.2.10,60.10826761253875,
0,0.9,training,1000,,,,,,0,84,84,84,,,,,,,,,,,,,277.30772971499755,None,d,0.34784376500101644,277.4077241779996,None,276.82345431700014,277.2243238739975,277.77418230699914,278.2744575309989,277.77418230699914,None,,,,,,11,001,exponential,gyrb,0.35-0.75,2021_May_19_1305,color_judgement_and_subjective_perception,2020.2.10,60.10826761253875,
2,0.9,training,1000,,,,,,0,85,85,85,,,,,,,,,,,,,278.8579657029986,None,j,0.40559936000136076,278.95799383399935,None,278.37433998599954,278.77339829799894,279.3913211649997,279.8735055469988,279.3913211649997,None,,,,,,11,001,exponential,gyrb,0.35-0.75,2021_May_19_1305,color_judgement_and_subjective_perception,2020.2.10,60.10826761253875,
3,0.9,training,1000,,,,,,0,86,86,86,,,,,,,,,,,,,280.2565697149985,None,k,0.3876784259991837,280.31191609300004,None,279.95675975999984,280.20798797599855,280.7132964449993,281.04159956199874,280.7132964449993,None,,,,,,11,001,exponential,gyrb,0.35-0.75,2021_May_19_1305,color_judgement_and_subjective_perception,2020.2.10,60.10826761253875,
1,0.9,training,1000,,,,,,0,87,87,87,,,,,,,,,,,,,281.6416781070002,None,d,0.3658375300001353,281.7417647839975,None,281.1414830279973,281.55834137799684,282.125932592,282.626126029998,282.125932592,None,,,,,,11,001,exponential,gyrb,0.35-0.75,2021_May_19_1305,color_judgement_and_subjective_perception,2020.2.10,60.10826761253875,
3,0.9,training,1000,,,,,,0,88,88,88,,,,,,,,,,,,,283.22608341399973,None,j,0.3895173859964416,283.3260692779986,None,282.72602503099915,283.14275666699905,283.74275836000015,284.2430202229989,283.74275836000015,None,,,,,,11,001,exponential,gyrb,0.35-0.75,2021_May_19_1305,color_judgement_and_subjective_perception,2020.2.10,60.10826761253875,
0,0.9,training,1000,,,,,,0,89,89,89,,,,,,,,,,,,,284.8430746819977,None,d,0.4285534800001187,284.9430235269974,None,284.3428140679971,284.7598236659978,285.3928868039984,285.8930549739998,285.3928868039984,None,,,,,,11,001,exponential,gyrb,0.35-0.75,2021_May_19_1305,color_judgement_and_subjective_perception,2020.2.10,60.10826761253875,
3,0.9,training,1000,,,,,,0,90,90,90,,,,,,,,,,,,,286.4931835529969,None,k,0.370202068999788,286.59336200100006,None,285.9931160899978,286.4098393899985,286.9939525569971,287.49421675899794,286.9939525569971,None,,,,,,11,001,exponential,gyrb,0.35-0.75,2021_May_19_1305,color_judgement_and_subjective_perception,2020.2.10,60.10826761253875,
2,0.9,training,1000,,,,,,0,91,91,91,,,,,,,,,,,,,288.0943630949987,None,j,0.5052898210014973,288.19429582799785,None,287.59416028699707,288.0109814489988,288.72759808000046,289.22773223499826,288.72759808000046,None,,,,,,11,001,exponential,gyrb,0.35-0.75,2021_May_19_1305,color_judgement_and_subjective_perception,2020.2.10,60.10826761253875,
3,0.9,training,1000,,,,,,0,92,92,92,,,,,,,,,,,,,289.82802321599956,None,k,0.3556118209999113,289.9279731209972,None,289.3278905449988,289.7446179769977,290.31106070799797,290.81143519000034,290.31106070799797,None,,,,,,11,001,exponential,gyrb,0.35-0.75,2021_May_19_1305,color_judgement_and_subjective_perception,2020.2.10,60.10826761253875,
1,0.9,training,1000,,,,,,0,93,93,93,,,,,,,,,,,,,291.41147286499836,None,f,0.3640671190005378,291.51152759699835,None,290.9113288689987,291.32817730699753,291.89474887899996,292.37925648300006,291.89474887899996,None,,,,,,11,001,exponential,gyrb,0.35-0.75,2021_May_19_1305,color_judgement_and_subjective_perception,2020.2.10,60.10826761253875,
0,0.9,training,1000,,,,,,0,94,94,94,,,,,,,,,,,,,292.9791070129977,None,d,0.46049114799825475,293.07915039100044,None,292.4790973959971,292.89580120699975,293.5625478820002,294.06272123099916,293.5625478820002,None,,,,,,11,001,exponential,gyrb,0.35-0.75,2021_May_19_1305,color_judgement_and_subjective_perception,2020.2.10,60.10826761253875,
0,0.9,training,1000,,,,,,0,95,95,95,,,,,,,,,,,,,294.66298758599805,None,d,0.32869790800032206,294.7629100159975,None,294.1626525190004,294.5796536589987,295.11275557800036,295.61295323800005,295.11275557800036,None,,,,,,11,001,exponential,gyrb,0.35-0.75,2021_May_19_1305,color_judgement_and_subjective_perception,2020.2.10,60.10826761253875,
0,0.35,testing,1000,1,,,,,,,,,0,0,0,0,0,0,0,0,,,,,301.6314333299997,None,None,-1,301.7313446279986,None,301.13773215299807,301.5479309149996,302.6320235219973,303.1323875279995,302.6320235219973,None,0,27,0,,,11,001,exponential,gyrb,0.35-0.75,2021_May_19_1305,color_judgement_and_subjective_perception,2020.2.10,60.10826761253875,
1,0.35,testing,1000,1,,,,,,,,,0,0,0,0,0,1,1,1,,,,,303.7324522909985,None,k,0.5150924070003384,303.83249193200027,None,303.232161893,303.64923522299796,304.365749184999,304.86622351999904,304.365749184999,None,24,24,0,,,11,001,exponential,gyrb,0.35-0.75,2021_May_19_1305,color_judgement_and_subjective_perception,2020.2.10,60.10826761253875,
2,0.35,testing,1000,1,,,,,,,,,0,0,0,0,0,2,2,2,,,,,305.46623391299727,None,None,-1,305.5661572019999,None,304.9660352559986,305.38276275399767,306.48267906899855,306.9671755290001,306.48267906899855,None,23,8,0,,,11,001,exponential,gyrb,0.35-0.75,2021_May_19_1305,color_judgement_and_subjective_perception,2020.2.10,60.10826761253875,
3,0.35,testing,1000,1,,,,,,,,,0,0,0,0,0,3,3,3,,,,,307.567174713,None,None,-1,307.667291259997,None,307.06705972800046,307.48380779799845,308.5839337929974,309.0842504289976,308.5839337929974,None,0,0,40,,,11,001,exponential,gyrb,0.35-0.75,2021_May_19_1305,color_judgement_and_subjective_perception,2020.2.10,60.10826761253875,
2,0.35,testing,1000,1,,,,,,,,,0,0,0,0,1,0,4,2,,,,,309.68425768199813,None,None,-1,309.78413277099753,None,309.18412384899784,309.60092579499906,310.700952160998,311.2010782639991,310.700952160998,None,26,9,0,,,11,001,exponential,gyrb,0.35-0.75,2021_May_19_1305,color_judgement_and_subjective_perception,2020.2.10,60.10826761253875,
1,0.35,testing,1000,1,,,,,,,,,0,0,0,0,1,1,5,1,,,,,311.80129812299856,None,None,-1,311.90116500399745,None,311.301070513,311.71750997900017,312.80207228699874,313.3021784759985,312.80207228699874,None,29,29,0,,,11,001,exponential,gyrb,0.35-0.75,2021_May_19_1305,color_judgement_and_subjective_perception,2020.2.10,60.10826761253875,
3,0.35,testing,1000,1,,,,,,,,,0,0,0,0,1,2,6,3,,,,,313.90252072099975,None,None,-1,314.0024878089971,None,313.40206365799895,313.8189243959969,314.9190632909995,315.4191830460004,314.9190632909995,None,0,0,44,,,11,001,exponential,gyrb,0.35-0.75,2021_May_19_1305,color_judgement_and_subjective_perception,2020.2.10,60.10826761253875,
0,0.35,testing,1000,1,,,,,,,,,0,0,0,0,1,3,7,0,,,,,316.0193307119989,None,f,0.3082176590032759,316.1193634449992,None,315.5192470499969,315.93595920000007,316.4526151509999,316.9374470969997,316.4526151509999,None,0,35,0,,,11,001,exponential,gyrb,0.35-0.75,2021_May_19_1305,color_judgement_and_subjective_perception,2020.2.10,60.10826761253875,
3,0.35,testing,1000,1,,,,,,,,,0,0,0,0,2,0,8,3,,,,,317.53704973999993,None,None,-1,317.63694373399994,None,317.0369108729974,317.45380468700023,318.55380682599935,319.0540954579992,318.55380682599935,None,0,0,47,,,11,001,exponential,gyrb,0.35-0.75,2021_May_19_1305,color_judgement_and_subjective_perception,2020.2.10,60.10826761253875,
0,0.35,testing,1000,1,,,,,,,,,0,0,0,0,2,1,9,0,,,,,319.654140284998,None,None,-1,319.75407323299805,None,319.15396568199867,319.57078093499877,320.67075599300006,321.17095263199735,320.67075599300006,None,0,38,0,,,11,001,exponential,gyrb,0.35-0.75,2021_May_19_1305,color_judgement_and_subjective_perception,2020.2.10,60.10826761253875,
1,0.35,testing,1000,1,,,,,,,,,0,0,0,0,2,2,10,1,,,,,321.77106913399984,None,None,-1,321.87110922399734,None,321.270955279997,321.6877616269994,322.7719396069988,323.27210454799933,322.7719396069988,None,35,35,0,,,11,001,exponential,gyrb,0.35-0.75,2021_May_19_1305,color_judgement_and_subjective_perception,2020.2.10,60.10826761253875,
2,0.35,testing,1000,1,,,,,,,,,0,0,0,0,2,3,11,2,,,,,323.87217575499744,None,k,0.16725322399724973,323.9722541230003,None,323.3719880639983,323.7887705439971,324.17203325599985,324.67232336099914,324.17203325599985,None,34,11,0,,,11,001,exponential,gyrb,0.35-0.75,2021_May_19_1305,color_judgement_and_subjective_perception,2020.2.10,60.10826761253875,
0,0.35,testing,1000,1,,,,,,,,,0,0,0,0,3,0,12,0,,,,,325.2724023849987,None,j,0.05523497800095356,325.37233459100025,None,324.77237930000047,325.18916721599817,325.45555620199957,325.9559371639989,325.45555620199957,None,0,42,0,,,11,001,exponential,gyrb,0.35-0.75,2021_May_19_1305,color_judgement_and_subjective_perception,2020.2.10,60.10826761253875,
3,0.35,testing,1000,1,,,,,,,,,0,0,0,0,3,1,13,3,,,,,326.55609532499875,None,k,0.13964268600102514,326.6559321349996,None,326.0557459470001,326.47254589099975,326.82252375999815,327.306887677998,326.82252375999815,None,0,0,53,,,11,001,exponential,gyrb,0.35-0.75,2021_May_19_1305,color_judgement_and_subjective_perception,2020.2.10,60.10826761253875,
1,0.35,testing,1000,1,,,,,,,,,0,0,0,0,3,2,14,1,,,,,327.90692102200046,None,k,0.4286981689983804,328.00689556900033,None,327.4068883309992,327.82350953700006,328.45682440499877,328.95713595199777,328.45682440499877,None,40,40,0,,,11,001,exponential,gyrb,0.35-0.75,2021_May_19_1305,color_judgement_and_subjective_perception,2020.2.10,60.10826761253875,
2,0.35,testing,1000,1,,,,,,,,,0,0,0,0,3,3,15,2,,,,,329.5573462169996,None,k,0.20224743700237013,329.6573478449973,None,329.05698452399884,329.4740383009994,329.89044588899924,330.3905905319989,329.89044588899924,None,39,13,0,,,11,001,exponential,gyrb,0.35-0.75,2021_May_19_1305,color_judgement_and_subjective_perception,2020.2.10,60.10826761253875,
0,0.35,testing,1000,1,,,,,,,,,0,0,0,0,4,0,16,0,,,,,330.9907442119984,None,k,0.4248029270020197,331.09075552099966,None,330.4905497269974,330.90739014099745,331.54078966799716,332.0250582480003,331.54078966799716,None,0,47,0,,,11,001,exponential,gyrb,0.35-0.75,2021_May_19_1305,color_judgement_and_subjective_perception,2020.2.10,60.10826761253875,
3,0.35,testing,1000,1,,,,,,,,,0,0,0,0,4,1,17,3,,,,,332.625135768998,None,k,0.40634155200314126,332.7252456999995,None,332.1248393329988,332.5417582079972,333.15834235299917,333.65872387799755,333.15834235299917,None,0,0,58,,,11,001,exponential,gyrb,0.35-0.75,2021_May_19_1305,color_judgement_and_subjective_perception,2020.2.10,60.10826761253875,
2,0.35,testing,1000,1,,,,,,,,,0,0,0,0,4,2,18,2,,,,,334.2588696829989,None,k,0.4526858649987844,334.35887392899895,None,333.7586622919989,334.17558299699886,334.8420489939999,335.3422315600001,334.8420489939999,None,41,14,0,,,11,001,exponential,gyrb,0.35-0.75,2021_May_19_1305,color_judgement_and_subjective_perception,2020.2.10,60.10826761253875,
1,0.35,testing,1000,1,,,,,,,,,0,0,0,0,4,3,19,1,,,,,335.9421917389991,None,k,0.4491478169984475,336.04237462699894,None,335.442226035997,335.85891698999694,336.5088992780002,336.99340434199985,336.5088992780002,None,44,44,0,,,11,001,exponential,gyrb,0.35-0.75,2021_May_19_1305,color_judgement_and_subjective_perception,2020.2.10,60.10826761253875,
0,0.35,testing,1000,1,,,,,,,,,0,0,0,0,5,0,20,0,,,,,337.593273475999,None,k,0.19818828699862934,337.69338181799685,None,337.09336282299773,337.5101361599991,337.91015303699896,338.4099932329991,337.91015303699896,None,0,50,0,,,11,001,exponential,gyrb,0.35-0.75,2021_May_19_1305,color_judgement_and_subjective_perception,2020.2.10,60.10826761253875,
2,0.35,testing,1000,1,,,,,,,,,0,0,0,0,5,1,21,2,,,,,339.01014637299886,None,k,0.22927809899920248,339.11031746499793,None,338.51019171299777,338.92697375999705,339.3603045889977,339.860494286997,339.3603045889977,None,45,15,0,,,11,001,exponential,gyrb,0.35-0.75,2021_May_19_1305,color_judgement_and_subjective_perception,2020.2.10,60.10826761253875,
3,0.35,testing,1000,1,,,,,,,,,0,0,0,0,5,2,22,3,,,,,340.4605324559998,None,k,0.6910215200005041,340.5605437519989,None,339.9604850279975,340.3771537909997,341.27712618700025,341.7774035549992,341.27712618700025,None,0,0,60,,,11,001,exponential,gyrb,0.35-0.75,2021_May_19_1305,color_judgement_and_subjective_perception,2020.2.10,60.10826761253875,
1,0.35,testing,1000,1,,,,,,,,,0,0,0,0,5,3,23,1,,,,,342.36168635599824,None,None,-1,342.4616760789977,None,341.8773866419979,342.2783144729983,343.3782459219983,343.8785803079991,343.3782459219983,None,47,47,0,,,11,001,exponential,gyrb,0.35-0.75,2021_May_19_1305,color_judgement_and_subjective_perception,2020.2.10,60.10826761253875,
2,0.35,testing,1000,1,,,,,,,,,0,0,0,0,6,0,24,2,,,,,344.47870099899956,None,None,-1,344.5786969619985,None,343.97839448899686,344.395366626999,345.4952363609991,345.99545103999844,345.4952363609991,None,47,16,0,,,11,001,exponential,gyrb,0.35-0.75,2021_May_19_1305,color_judgement_and_subjective_perception,2020.2.10,60.10826761253875,
0,0.35,testing,1000,1,,,,,,,,,0,0,0,0,6,1,25,0,,,,,346.5955531990003,None,None,-1,346.69576441299796,None,346.0954066209997,346.5123218379995,347.59648075099904,348.0965674580002,347.59648075099904,None,0,54,0,,,11,001,exponential,gyrb,0.35-0.75,2021_May_19_1305,color_judgement_and_subjective_perception,2020.2.10,60.10826761253875,
3,0.35,testing,1000,1,,,,,,,,,0,0,0,0,6,2,26,3,,,,,348.696654905998,None,j,0.5747918749984819,348.7967985719988,None,348.1966090979986,348.61345964499924,349.39677448899965,349.897020376,349.39677448899965,None,0,0,61,,,11,001,exponential,gyrb,0.35-0.75,2021_May_19_1305,color_judgement_and_subjective_perception,2020.2.10,60.10826761253875,
1,0.35,testing,1000,1,,,,,,,,,0,0,0,0,6,3,27,1,,,,,350.49708954699963,None,d,0.7266098889995192,350.59696973799873,None,349.99691374599934,350.4136830069983,351.346998705998,351.84721557899684,351.346998705998,None,52,52,0,,,11,001,exponential,gyrb,0.35-0.75,2021_May_19_1305,color_judgement_and_subjective_perception,2020.2.10,60.10826761253875,
3,0.35,testing,1000,1,,,,,,,,,0,0,0,0,7,0,28,3,,,,,352.4314591529983,None,k,0.7759987890021876,352.53155267299735,None,351.93960811299985,352.3483135739989,353.3314153350002,353.83180390800044,353.3314153350002,None,0,0,62,,,11,001,exponential,gyrb,0.35-0.75,2021_May_19_1305,color_judgement_and_subjective_perception,2020.2.10,60.10826761253875,
1,0.35,testing,1000,1,,,,,,,,,0,0,0,0,7,1,29,1,,,,,354.43200458999854,None,d,0.6236714139995456,354.53189437499896,None,353.93154402099753,354.348611833997,355.1818178299982,355.6820175009998,355.1818178299982,None,55,55,0,,,11,001,exponential,gyrb,0.35-0.75,2021_May_19_1305,color_judgement_and_subjective_perception,2020.2.10,60.10826761253875,
2,0.35,testing,1000,1,,,,,,,,,0,0,0,0,7,2,30,2,,,,,356.28204866799933,None,j,0.8215430219970585,356.38202005199855,None,355.78198577799776,356.1986935479981,357.23289646099875,357.7329426659999,357.23289646099875,None,54,18,0,,,11,001,exponential,gyrb,0.35-0.75,2021_May_19_1305,color_judgement_and_subjective_perception,2020.2.10,60.10826761253875,
0,0.35,testing,1000,1,,,,,,,,,0,0,0,0,7,3,31,0,,,,,358.3330487329986,None,d,0.6584098820021609,358.4331766519972,None,357.83295583499785,358.249895388999,359.11657811999976,359.6169198239986,359.11657811999976,None,0,59,0,,,11,001,exponential,gyrb,0.35-0.75,2021_May_19_1305,color_judgement_and_subjective_perception,2020.2.10,60.10826761253875,
3,0.35,testing,1000,1,,,,,,,,,0,0,0,0,8,0,32,3,,,,,360.216905194,None,k,0.5987020099964866,360.3168931709988,None,359.71679783199943,360.1334439819984,360.9334714439974,361.4338512819995,360.9334714439974,None,0,0,61,,,11,001,exponential,gyrb,0.35-0.75,2021_May_19_1305,color_judgement_and_subjective_perception,2020.2.10,60.10826761253875,
1,0.35,testing,1000,1,,,,,,,,,0,0,0,0,8,1,33,1,,,,,362.01806358799877,None,d,0.5975058510011877,362.11806137299936,None,361.53359018099945,361.9416348829982,362.73454219499763,363.2347641870001,362.73454219499763,None,54,54,0,,,11,001,exponential,gyrb,0.35-0.75,2021_May_19_1305,color_judgement_and_subjective_perception,2020.2.10,60.10826761253875,
0,0.35,testing,1000,1,,,,,,,,,0,0,0,0,8,2,34,0,,,,,363.8349677539991,None,d,0.6285903970019717,363.9349836549991,None,363.33450426799754,363.751461251999,364.5848596799988,365.084993870998,364.5848596799988,None,0,57,0,,,11,001,exponential,gyrb,0.35-0.75,2021_May_19_1305,color_judgement_and_subjective_perception,2020.2.10,60.10826761253875,
2,0.35,testing,1000,1,,,,,,,,,0,0,0,0,8,3,35,2,,,,,365.6851399869993,None,j,0.7623917359996994,365.78518133099715,None,365.18496954599686,365.6017746269972,366.5685653239998,367.0528825729998,366.5685653239998,None,50,17,0,,,11,001,exponential,gyrb,0.35-0.75,2021_May_19_1305,color_judgement_and_subjective_perception,2020.2.10,60.10826761253875,
1,0.35,testing,1000,1,,,,,,,,,0,0,0,0,9,0,36,1,,,,,367.65319813599854,None,d,0.6267436199996155,367.752849859,None,367.15290968299814,367.56966426599683,368.40283542999896,368.903177082997,368.40283542999896,None,52,52,0,,,11,001,exponential,gyrb,0.35-0.75,2021_May_19_1305,color_judgement_and_subjective_perception,2020.2.10,60.10826761253875,
2,0.35,testing,1000,1,,,,,,,,,0,0,0,0,9,1,37,2,,,,,369.50329616399904,None,k,0.8161379610028234,369.6033233479975,None,369.0031160969993,369.4199206329977,370.43639582799733,370.9366943379973,370.43639582799733,None,47,16,0,,,11,001,exponential,gyrb,0.35-0.75,2021_May_19_1305,color_judgement_and_subjective_perception,2020.2.10,60.10826761253875,
3,0.35,testing,1000,1,,,,,,,,,0,0,0,0,9,2,38,3,,,,,371.53678537499945,None,k,0.5347054010017018,371.63677725699745,None,371.03660667700024,371.453341016997,372.20444467999914,372.70454601099846,372.20444467999914,None,0,0,54,,,11,001,exponential,gyrb,0.35-0.75,2021_May_19_1305,color_judgement_and_subjective_perception,2020.2.10,60.10826761253875,
0,0.35,testing,1000,1,,,,,,,,,0,0,0,0,9,3,39,0,,,,,373.30460693999703,None,d,0.49475790100041195,373.40472293699713,None,372.804491011997,373.2210984459998,373.9213837489988,374.4215562779973,373.9213837489988,None,0,51,0,,,11,001,exponential,gyrb,0.35-0.75,2021_May_19_1305,color_judgement_and_subjective_perception,2020.2.10,60.10826761253875,
3,0.35,testing,1000,1,,,,,,,,,0,0,0,0,10,0,40,3,,,,,375.02160695400016,None,k,0.7458998809997865,375.1216894319987,None,374.52146038999854,374.938289720998,375.88814241399814,376.3886019999991,375.88814241399814,None,0,0,51,,,11,001,exponential,gyrb,0.35-0.75,2021_May_19_1305,color_judgement_and_subjective_perception,2020.2.10,60.10826761253875,
1,0.35,testing,1000,1,,,,,,,,,0,0,0,0,10,1,41,1,,,,,376.9727589519971,None,d,0.5067644070004462,377.0727884259977,None,376.4884305839987,376.90520810799717,377.6059311429999,378.10594424699957,377.6059311429999,None,48,48,0,,,11,001,exponential,gyrb,0.35-0.75,2021_May_19_1305,color_judgement_and_subjective_perception,2020.2.10,60.10826761253875,
2,0.35,testing,1000,1,,,,,,,,,0,0,0,0,10,2,42,2,,,,,378.70611666499826,None,None,-1,378.80632506399706,None,378.20607550299974,378.6229742309988,379.72293451400037,380.22312685699944,379.72293451400037,None,41,14,0,,,11,001,exponential,gyrb,0.35-0.75,2021_May_19_1305,color_judgement_and_subjective_perception,2020.2.10,60.10826761253875,
0,0.35,testing,1000,1,,,,,,,,,0,0,0,0,10,3,43,0,,,,,380.82318380200013,None,d,0.4084186799991585,380.9231468090002,None,380.32311231600033,380.73999707300027,381.35654414599776,381.8567502240003,381.35654414599776,None,0,46,0,,,11,001,exponential,gyrb,0.35-0.75,2021_May_19_1305,color_judgement_and_subjective_perception,2020.2.10,60.10826761253875,
1,0.35,testing,1000,1,,,,,,,,,0,0,0,0,11,0,44,1,,,,,382.4409272319972,None,d,0.5186298010012251,382.54095184799735,None,381.949471169999,382.35774924900034,383.0909015969992,383.5909673850001,383.0909015969992,None,46,46,0,,,11,001,exponential,gyrb,0.35-0.75,2021_May_19_1305,color_judgement_and_subjective_perception,2020.2.10,60.10826761253875,
0,0.35,testing,1000,1,,,,,,,,,0,0,0,0,11,1,45,0,,,,,384.19121221000023,None,d,0.6242518910003128,384.29128715799743,None,383.6911225829972,384.1081066659972,384.94119464100004,385.44143078900015,384.94119464100004,None,0,43,0,,,11,001,exponential,gyrb,0.35-0.75,2021_May_19_1305,color_judgement_and_subjective_perception,2020.2.10,60.10826761253875,
3,0.35,testing,1000,1,,,,,,,,,0,0,0,0,11,2,46,3,,,,,386.0415480519987,None,k,0.5339671559995622,386.14151644199956,None,385.541366084999,385.95823070500046,386.70824356400044,387.19261571399693,386.70824356400044,None,0,0,44,,,11,001,exponential,gyrb,0.35-0.75,2021_May_19_1305,color_judgement_and_subjective_perception,2020.2.10,60.10826761253875,
2,0.35,testing,1000,1,,,,,,,,,0,0,0,0,11,3,47,2,,,,,387.7925215989999,None,f,0.48698586499813246,387.89259367900013,None,387.29249330899984,387.7093530659986,388.4091239599984,388.9094429149991,388.4091239599984,None,37,12,0,,,11,001,exponential,gyrb,0.35-0.75,2021_May_19_1305,color_judgement_and_subjective_perception,2020.2.10,60.10826761253875,
1,0.35,testing,1000,1,,,,,,,,,0,0,0,0,12,0,48,1,,,,,389.50960594299977,None,d,0.4338234429997101,389.6096718029985,None,389.0094136560001,389.4263831129974,390.07622005899975,390.5764408529976,390.07622005899975,None,43,43,0,,,11,001,exponential,gyrb,0.35-0.75,2021_May_19_1305,color_judgement_and_subjective_perception,2020.2.10,60.10826761253875,
3,0.35,testing,1000,1,,,,,,,,,0,0,0,0,12,1,49,3,,,,,391.17652011399696,None,k,0.6229709620020003,391.2765946319996,None,390.6762904440002,391.0930296939987,391.92641106500014,392.4107142569992,391.92641106500014,None,0,0,40,,,11,001,exponential,gyrb,0.35-0.75,2021_May_19_1305,color_judgement_and_subjective_perception,2020.2.10,60.10826761253875,
2,0.35,testing,1000,1,,,,,,,,,0,0,0,0,12,2,50,2,,,,,393.0108374499978,None,d,0.7407187980024901,393.11086398399857,None,392.5108320090003,392.9276045309998,393.8775653929988,394.3779477479984,393.8775653929988,None,35,12,0,,,11,001,exponential,gyrb,0.35-0.75,2021_May_19_1305,color_judgement_and_subjective_perception,2020.2.10,60.10826761253875,
0,0.35,testing,1000,1,,,,,,,,,0,0,0,0,12,3,51,0,,,,,394.9779706849986,None,d,0.6936061630003678,395.0779932689984,None,394.4778695599998,394.8946836539981,395.79430860799766,396.2947735569978,395.79430860799766,None,0,36,0,,,11,001,exponential,gyrb,0.35-0.75,2021_May_19_1305,color_judgement_and_subjective_perception,2020.2.10,60.10826761253875,
0,0.35,testing,1000,1,,,,,,,,,0,0,0,0,13,0,52,0,,,,,396.8948392249986,None,None,-1,396.97899481799686,None,396.39464121499987,396.8115463849972,397.89554697399944,398.3958566859983,397.89554697399944,None,0,34,0,,,11,001,exponential,gyrb,0.35-0.75,2021_May_19_1305,color_judgement_and_subjective_perception,2020.2.10,60.10826761253875,
3,0.35,testing,1000,1,,,,,,,,,0,0,0,0,13,1,53,3,,,,,398.99598863199935,None,j,0.675541123997391,399.0960282849992,None,398.49585651300004,398.91271701499863,399.79596001699974,400.2960691699991,399.79596001699974,None,0,0,35,,,11,001,exponential,gyrb,0.35-0.75,2021_May_19_1305,color_judgement_and_subjective_perception,2020.2.10,60.10826761253875,
2,0.35,testing,1000,1,,,,,,,,,0,0,0,0,13,2,54,2,,,,,400.8961481539991,None,f,0.4233701060002204,400.9962164259996,None,400.3960678459989,400.81289494999874,401.4463000439973,401.94504802299707,401.4463000439973,None,34,11,0,,,11,001,exponential,gyrb,0.35-0.75,2021_May_19_1305,color_judgement_and_subjective_perception,2020.2.10,60.10826761253875,
1,0.35,testing,1000,1,,,,,,,,,0,0,0,0,13,3,55,1,,,,,402.53055073499854,None,d,0.5089740869989328,402.630598972999,None,402.03057530799924,402.4473419349997,403.1639672889978,403.66417242399984,403.1639672889978,None,41,41,0,,,11,001,exponential,gyrb,0.35-0.75,2021_May_19_1305,color_judgement_and_subjective_perception,2020.2.10,60.10826761253875,
1,0.35,testing,1000,1,,,,,,,,,0,0,0,0,14,0,56,1,,,,,404.26435994799976,None,d,0.6072135490030632,404.36435560399696,None,403.76402903399867,404.18106004199944,404.99762044199815,405.49765118699725,404.99762044199815,None,43,43,0,,,11,001,exponential,gyrb,0.35-0.75,2021_May_19_1305,color_judgement_and_subjective_perception,2020.2.10,60.10826761253875,
3,0.35,testing,1000,1,,,,,,,,,0,0,0,0,14,1,57,3,,,,,406.0979125699996,None,k,0.4377570079996076,406.19783802500024,None,405.59775201999946,406.01444462299696,406.664500117,407.1490452429971,406.664500117,None,0,0,38,,,11,001,exponential,gyrb,0.35-0.75,2021_May_19_1305,color_judgement_and_subjective_perception,2020.2.10,60.10826761253875,
0,0.35,testing,1000,1,,,,,,,,,0,0,0,0,14,2,58,0,,,,,407.748835432998,None,d,0.514672397999675,407.84890288399765,None,407.2487379999984,407.6655410429994,408.3822458729992,408.8824809809994,408.3822458729992,None,0,35,0,,,11,001,exponential,gyrb,0.35-0.75,2021_May_19_1305,color_judgement_and_subjective_perception,2020.2.10,60.10826761253875,
2,0.35,testing,1000,1,,,,,,,,,0,0,0,0,14,3,59,2,,,,,409.4825355639987,None,f,0.820882473999518,409.5826994509989,None,408.9825629369989,409.39941388199804,410.4325211109972,410.9326987509994,410.4325211109972,None,36,12,0,,,11,001,exponential,gyrb,0.35-0.75,2021_May_19_1305,color_judgement_and_subjective_perception,2020.2.10,60.10826761253875,
1,0.35,testing,1000,1,,,,,,,,,0,0,0,0,15,0,60,1,,,,,411.5328026399984,None,j,0.6107831029985391,411.63282134399924,None,411.03267071299706,411.44954647899795,412.267187292,412.7671687330003,412.267187292,None,42,42,0,,,11,001,exponential,gyrb,0.35-0.75,2021_May_19_1305,color_judgement_and_subjective_perception,2020.2.10,60.10826761253875,
0,0.35,testing,1000,1,,,,,,,,,0,0,0,0,15,1,61,0,,,,,413.367405252,None,d,0.7042319799984398,413.4673602779985,None,412.86721049599873,413.2839026499969,414.2006837609988,414.7008882839982,414.2006837609988,None,0,33,0,,,11,001,exponential,gyrb,0.35-0.75,2021_May_19_1305,color_judgement_and_subjective_perception,2020.2.10,60.10826761253875,
3,0.35,testing,1000,1,,,,,,,,,0,0,0,0,15,2,62,3,,,,,415.3008819229981,None,k,0.4026415759981319,415.40093362100015,None,414.80083852700045,415.21766929099977,415.8341241859998,416.33438290199774,415.8341241859998,None,0,0,34,,,11,001,exponential,gyrb,0.35-0.75,2021_May_19_1305,color_judgement_and_subjective_perception,2020.2.10,60.10826761253875,
2,0.35,testing,1000,1,,,,,,,,,0,0,0,0,15,3,63,2,,,,,416.9344925389996,None,f,0.4006964549989789,417.01881589500044,None,416.4343356859972,416.85117877299854,417.4521106609973,417.9520690449972,417.4521106609973,None,35,12,0,,,11,001,exponential,gyrb,0.35-0.75,2021_May_19_1305,color_judgement_and_subjective_perception,2020.2.10,60.10826761253875,
2,0.35,testing,1000,1,,,,,,,,,0,0,0,0,16,0,64,2,,,,,418.55210070799876,None,d,0.6713959759981663,418.6522324239995,None,418.05204066799706,418.46891466799934,419.3523103419975,419.8525444609986,419.3523103419975,None,35,12,0,,,11,001,exponential,gyrb,0.35-0.75,2021_May_19_1305,color_judgement_and_subjective_perception,2020.2.10,60.10826761253875,
0,0.35,testing,1000,1,,,,,,,,,0,0,0,0,16,1,65,0,,,,,420.4523870619996,None,k,0.666908773000614,420.5525562019975,None,419.95251595899754,420.36912873399706,421.2525636299979,421.7528831549971,421.2525636299979,None,0,30,0,,,11,001,exponential,gyrb,0.35-0.75,2021_May_19_1305,color_judgement_and_subjective_perception,2020.2.10,60.10826761253875,
1,0.35,testing,1000,1,,,,,,,,,0,0,0,0,16,2,66,1,,,,,422.33706922099736,None,d,0.43047170099816867,422.4370912899976,None,421.8525294229985,422.253699375,422.88693700399745,423.3870979610001,422.88693700399745,None,43,43,0,,,11,001,exponential,gyrb,0.35-0.75,2021_May_19_1305,color_judgement_and_subjective_perception,2020.2.10,60.10826761253875,
3,0.35,testing,1000,1,,,,,,,,,0,0,0,0,16,3,67,3,,,,,423.98723083799996,None,k,0.5642298370003118,424.08734721499786,None,423.4871870349998,423.9039286119987,424.6705990189985,425.1707067319985,424.6705990189985,None,0,0,34,,,11,001,exponential,gyrb,0.35-0.75,2021_May_19_1305,color_judgement_and_subjective_perception,2020.2.10,60.10826761253875,
0,0.35,testing,1000,1,,,,,,,,,0,0,0,0,17,0,68,0,,,,,425.77067530899876,None,f,0.8047946999977285,425.8708245559974,None,425.27070715199807,425.6874344019998,426.7041429439996,427.18853962799767,426.7041429439996,None,0,30,0,,,11,001,exponential,gyrb,0.35-0.75,2021_May_19_1305,color_judgement_and_subjective_perception,2020.2.10,60.10826761253875,
1,0.35,testing,1000,1,,,,,,,,,0,0,0,0,17,1,69,1,,,,,427.7885188359978,None,d,0.5550146740024502,427.88853774699965,None,427.2886178669978,427.7053370020003,428.4718723829974,428.9721628269981,428.4718723829974,None,45,45,0,,,11,001,exponential,gyrb,0.35-0.75,2021_May_19_1305,color_judgement_and_subjective_perception,2020.2.10,60.10826761253875,
3,0.35,testing,1000,1,,,,,,,,,0,0,0,0,17,2,70,3,,,,,429.5723830979987,None,k,0.4271515879991057,429.67237232299885,None,429.0720597969994,429.4889020539995,430.12215516599827,430.622434400997,430.12215516599827,None,0,0,34,,,11,001,exponential,gyrb,0.35-0.75,2021_May_19_1305,color_judgement_and_subjective_perception,2020.2.10,60.10826761253875,
2,0.35,testing,1000,1,,,,,,,,,0,0,0,0,17,3,71,2,,,,,431.2226171559996,None,d,0.529037291998975,431.32253342999684,None,430.722317820997,431.1390693249996,431.872197591998,432.356668851,431.872197591998,None,39,13,0,,,11,001,exponential,gyrb,0.35-0.75,2021_May_19_1305,color_judgement_and_subjective_perception,2020.2.10,60.10826761253875,
3,0.35,testing,1000,1,,,,,,,,,0,0,0,0,18,0,72,3,,,,,432.95673731199713,None,j,0.3229256510021514,433.0566435369983,None,432.4567036679982,432.87355806999767,433.4067493570001,433.90689640599885,433.4067493570001,None,0,0,33,,,11,001,exponential,gyrb,0.35-0.75,2021_May_19_1305,color_judgement_and_subjective_perception,2020.2.10,60.10826761253875,
2,0.35,testing,1000,1,,,,,,,,,0,0,0,0,18,1,73,2,,,,,434.50722447599765,None,f,0.29234931000246434,434.6072607690003,None,434.00702931499836,434.42376394799794,434.92374408499745,435.4238836629993,434.92374408499745,None,42,14,0,,,11,001,exponential,gyrb,0.35-0.75,2021_May_19_1305,color_judgement_and_subjective_perception,2020.2.10,60.10826761253875,
1,0.35,testing,1000,1,,,,,,,,,0,0,0,0,18,2,74,1,,,,,436.02404656699946,None,f,0.4155963970006269,436.12399692799954,None,435.523896024999,435.9406827139974,436.5573586449973,437.04180899699713,436.5573586449973,None,49,49,0,,,11,001,exponential,gyrb,0.35-0.75,2021_May_19_1305,color_judgement_and_subjective_perception,2020.2.10,60.10826761253875,
0,0.35,testing,1000,1,,,,,,,,,0,0,0,0,18,3,75,0,,,,,437.6419020760004,None,d,0.8697598680009833,437.74182739800017,None,437.1417632299999,437.55831635999857,438.6419328089978,439.14214349899703,438.6419328089978,None,0,32,0,,,11,001,exponential,gyrb,0.35-0.75,2021_May_19_1305,color_judgement_and_subjective_perception,2020.2.10,60.10826761253875,
2,0.35,testing,1000,1,,,,,,,,,0,0,0,0,19,0,76,2,,,,,439.7409012190001,None,None,-1,439.84213055099826,None,439.2419496929979,439.6589898559978,440.42551109600026,440.7127888119976,440.42551109600026,None,42,14,0,,,11,001,exponential,gyrb,0.35-0.75,2021_May_19_1305,color_judgement_and_subjective_perception,2020.2.10,60.10826761253875,
1,0.35,testing,1000,1,,,,,,,,,0,0,0,0,19,1,77,1,,,,,441.06275937199825,None,None,-1,441.11931810199894,None,440.77046134099874,441.0165921890002,441.6464103399994,441.9350550499985,441.6464103399994,None,47,47,0,,,11,001,exponential,gyrb,0.35-0.75,2021_May_19_1305,color_judgement_and_subjective_perception,2020.2.10,60.10826761253875,
3,0.35,testing,1000,1,,,,,,,,,0,0,0,0,19,2,78,3,,,,,442.5269989829976,None,d,0.20056781199673424,442.62692622800023,None,442.0268737229999,442.4434994969997,442.86019086399756,443.3602253299978,442.86019086399756,None,0,0,32,,,11,001,exponential,gyrb,0.35-0.75,2021_May_19_1305,color_judgement_and_subjective_perception,2020.2.10,60.10826761253875,
0,0.35,testing,1000,1,,,,,,,,,0,0,0,0,19,3,79,0,,,,,443.9602284939974,None,k,0.3351927590010746,444.0603906659999,None,443.4602101499986,443.8770008270003,444.4269495239969,444.92723912699876,444.4269495239969,None,0,31,0,,,11,001,exponential,gyrb,0.35-0.75,2021_May_19_1305,color_judgement_and_subjective_perception,2020.2.10,60.10826761253875,
3,0.35,testing,1000,1,,,,,,,,,0,0,0,0,20,0,80,3,,,,,445.52731833699727,None,d,0.6002243609982543,445.6272471099983,None,445.0272270589994,445.44393187899914,446.2605328879981,446.760853036998,446.2605328879981,None,0,0,33,,,11,001,exponential,gyrb,0.35-0.75,2021_May_19_1305,color_judgement_and_subjective_perception,2020.2.10,60.10826761253875,
1,0.35,testing,1000,1,,,,,,,,,0,0,0,0,20,1,81,1,,,,,447.34490105700024,None,f,0.49472998900091625,447.44483113899696,None,446.8607082649978,447.2615374050001,447.9614975689983,448.461721828,447.9614975689983,None,52,52,0,,,11,001,exponential,gyrb,0.35-0.75,2021_May_19_1305,color_judgement_and_subjective_perception,2020.2.10,60.10826761253875,
0,0.35,testing,1000,1,,,,,,,,,0,0,0,0,20,2,82,0,,,,,449.06192387899864,None,f,0.6577209060014866,449.1618643309994,None,448.56165406199943,448.9785180149993,449.8451615390004,450.34541684599753,449.8451615390004,None,0,31,0,,,11,001,exponential,gyrb,0.35-0.75,2021_May_19_1305,color_judgement_and_subjective_perception,2020.2.10,60.10826761253875,
2,0.35,testing,1000,1,,,,,,,,,0,0,0,0,20,3,83,2,,,,,450.94553832699967,None,d,0.4301457309993566,451.0454315770003,None,450.4452162710004,450.8620428869981,451.49552462299835,451.98019652899893,451.49552462299835,None,46,15,0,,,11,001,exponential,gyrb,0.35-0.75,2021_May_19_1305,color_judgement_and_subjective_perception,2020.2.10,60.10826761253875,
1,0.35,testing,1000,1,,,,,,,,,0,0,0,0,21,0,84,1,,,,,452.5796643609974,None,d,0.43576971900256467,452.6798118299994,None,452.0797230499993,452.4965510559996,453.1464227389988,453.64665989399873,453.1464227389988,None,52,52,0,,,11,001,exponential,gyrb,0.35-0.75,2021_May_19_1305,color_judgement_and_subjective_perception,2020.2.10,60.10826761253875,
0,0.35,testing,1000,1,,,,,,,,,0,0,0,0,21,1,85,0,,,,,454.24688550599967,None,j,0.7846575629992003,454.34690051399957,None,453.74661472200023,454.1634906369982,455.1635196269999,455.6636676529997,455.1635196269999,None,0,35,0,,,11,001,exponential,gyrb,0.35-0.75,2021_May_19_1305,color_judgement_and_subjective_perception,2020.2.10,60.10826761253875,
2,0.35,testing,1000,1,,,,,,,,,0,0,0,0,21,2,86,2,,,,,456.2636934660004,None,j,0.6398468519982998,456.3637239009986,None,455.7635357299987,456.18060008599787,457.0311296109976,457.5316062189995,457.0311296109976,None,50,17,0,,,11,001,exponential,gyrb,0.35-0.75,2021_May_19_1305,color_judgement_and_subjective_perception,2020.2.10,60.10826761253875,
3,0.35,testing,1000,1,,,,,,,,,0,0,0,0,21,3,87,3,,,,,458.1314081879973,None,k,0.7480838370029232,458.2314922730002,None,457.6312929029991,458.04807264699775,458.9982138069972,459.4984482519976,458.9982138069972,None,0,0,37,,,11,001,exponential,gyrb,0.35-0.75,2021_May_19_1305,color_judgement_and_subjective_perception,2020.2.10,60.10826761253875,
2,0.35,testing,1000,1,,,,,,,,,0,0,0,0,22,0,88,2,,,,,460.0985196849979,None,j,0.6530432599975029,460.1985111769973,None,459.59842559499884,460.01511115500034,460.88172292799936,461.3820722419987,460.88172292799936,None,49,16,0,,,11,001,exponential,gyrb,0.35-0.75,2021_May_19_1305,color_judgement_and_subjective_perception,2020.2.10,60.10826761253875,
0,0.35,testing,1000,1,,,,,,,,,0,0,0,0,22,1,89,0,,,,,461.9733235349995,None,d,0.5451627309994365,462.0664110589969,None,461.4819630769998,461.8987762249999,462.63289208999777,463.133040454999,462.63289208999777,None,0,34,0,,,11,001,exponential,gyrb,0.35-0.75,2021_May_19_1305,color_judgement_and_subjective_perception,2020.2.10,60.10826761253875,
1,0.35,testing,1000,1,,,,,,,,,0,0,0,0,22,2,90,1,,,,,463.7331597880002,None,d,0.3941620680016058,463.83334148299764,None,463.2329270800001,463.6499421059998,464.2498658259974,464.7501476349971,464.2498658259974,None,51,51,0,,,11,001,exponential,gyrb,0.35-0.75,2021_May_19_1305,color_judgement_and_subjective_perception,2020.2.10,60.10826761253875,
3,0.35,testing,1000,1,,,,,,,,,0,0,0,0,22,3,91,3,,,,,465.3502292759986,None,None,-1,465.45016159799707,None,464.8500357169978,465.2667139019977,466.36691283099935,466.8670634579976,466.36691283099935,None,0,0,32,,,11,001,exponential,gyrb,0.35-0.75,2021_May_19_1305,color_judgement_and_subjective_perception,2020.2.10,60.10826761253875,
1,0.35,testing,1000,1,,,,,,,,,0,0,0,0,23,0,92,1,,,,,467.4512585140001,None,d,0.5401306600033422,467.5514329990001,None,466.9656957779989,467.3680849809971,468.1178555939987,468.61810749600045,468.1178555939987,None,50,50,0,,,11,001,exponential,gyrb,0.35-0.75,2021_May_19_1305,color_judgement_and_subjective_perception,2020.2.10,60.10826761253875,
3,0.35,testing,1000,1,,,,,,,,,0,0,0,0,23,1,93,3,,,,,469.21837889699964,None,k,0.6212148900012835,469.31838137199884,None,468.71809637099796,469.13500967399887,469.96815812599743,470.46840745699956,469.96815812599743,None,0,0,31,,,11,001,exponential,gyrb,0.35-0.75,2021_May_19_1305,color_judgement_and_subjective_perception,2020.2.10,60.10826761253875,
2,0.35,testing,1000,1,,,,,,,,,0,0,0,0,23,2,94,2,,,,,471.06847191199995,None,k,0.67509854400123,471.1684682649975,None,470.56830873799845,470.9853052079998,471.8684421170001,472.35294143399733,471.8684421170001,None,44,15,0,,,11,001,exponential,gyrb,0.35-0.75,2021_May_19_1305,color_judgement_and_subjective_perception,2020.2.10,60.10826761253875,
0,0.35,testing,1000,1,,,,,,,,,0,0,0,0,23,3,95,0,,,,,472.95285420599976,None,f,0.5828474650006683,473.05272659899856,None,472.4527641579989,472.8696143519992,473.65284419999807,474.15323051799714,473.65284419999807,None,0,31,0,,,11,001,exponential,gyrb,0.35-0.75,2021_May_19_1305,color_judgement_and_subjective_perception,2020.2.10,60.10826761253875,
0,0.35,testing,1000,1,,,,,,,,,0,0,0,0,,,,,0,0,0,0,478.4211543169986,None,d,0.5863620979980624,478.52120030699734,None,477.9209938159984,478.3378887129984,479.14068732399755,479.6381139269979,479.14068732399755,None,0,33,0,474.27036929599853,None,11,001,exponential,gyrb,0.35-0.75,2021_May_19_1305,color_judgement_and_subjective_perception,2020.2.10,60.10826761253875,
1,0.35,testing,1000,1,,,,,,,,,0,0,0,0,,,,,0,1,1,1,480.2381146890002,None,d,0.5213727629998175,480.338146312999,None,479.7378976250002,480.15492930300024,480.889527583,481.38834301099996,480.889527583,None,52,52,0,None,None,11,001,exponential,gyrb,0.35-0.75,2021_May_19_1305,color_judgement_and_subjective_perception,2020.2.10,60.10826761253875,
3,0.35,testing,1000,1,,,,,,,,,0,0,0,0,,,,,0,2,2,3,481.979738525999,None,k,0.5870176979988173,482.07256941299784,None,481.4881666729998,481.90508009599944,482.69059734799885,483.18932360799954,482.69059734799885,None,0,0,31,None,None,11,001,exponential,gyrb,0.35-0.75,2021_May_19_1305,color_judgement_and_subjective_perception,2020.2.10,60.10826761253875,
2,0.35,testing,1000,1,,,,,,,,,0,0,0,0,,,,,0,3,3,2,483.78960667499996,None,None,-1,483.8896260779984,None,483.28928777499823,483.70607157599807,484.80650955599776,485.30644366100023,484.80650955599776,None,44,15,0,None,None,11,001,exponential,gyrb,0.35-0.75,2021_May_19_1305,color_judgement_and_subjective_perception,2020.2.10,60.10826761253875,
0,0.35,testing,1000,1,,,,,,,,,0,0,0,0,,,,,1,0,4,0,485.90648073899865,None,d,0.6050786439991498,486.0065056509993,None,485.4062718839996,485.8231788339981,486.6412154309983,487.1243552140004,486.6412154309983,None,0,30,0,None,None,11,001,exponential,gyrb,0.35-0.75,2021_May_19_1305,color_judgement_and_subjective_perception,2020.2.10,60.10826761253875,
2,0.35,testing,1000,1,,,,,,,,,0,0,0,0,,,,,1,1,5,2,487.7243501209996,None,j,0.8111127779993694,487.82438072699733,None,487.22388058700017,487.64088240099954,488.6576633099976,489.15791113399973,488.6576633099976,None,43,14,0,None,None,11,001,exponential,gyrb,0.35-0.75,2021_May_19_1305,color_judgement_and_subjective_perception,2020.2.10,60.10826761253875,
3,0.35,testing,1000,1,,,,,,,,,0,0,0,0,,,,,1,2,6,3,489.7580703809981,None,j,0.48147409399825847,489.8580785979975,None,489.25772681799936,489.67464789899896,490.35924829099895,490.85808049499974,490.35924829099895,None,0,0,26,None,None,11,001,exponential,gyrb,0.35-0.75,2021_May_19_1305,color_judgement_and_subjective_perception,2020.2.10,60.10826761253875,
0,0.35,testing,1000,1,,,,,,,,,0,0,0,0,,,,,1,3,7,0,491.45820657799777,None,d,0.46950809599729837,491.55808196,None,490.9579975199995,491.3748345569984,492.06047948599735,492.55915034200007,492.06047948599735,None,0,26,0,None,None,11,001,exponential,gyrb,0.35-0.75,2021_May_19_1305,color_judgement_and_subjective_perception,2020.2.10,60.10826761253875,
2,0.35,testing,1000,1,,,,,,,,,0,0,0,0,,,,,2,0,8,2,493.1592069469989,None,f,0.7363649770013581,493.2592220739971,None,492.6590320079995,493.0757309449982,494.0273891889992,494.5264364169998,494.0273891889992,None,39,13,0,None,None,11,001,exponential,gyrb,0.35-0.75,2021_May_19_1305,color_judgement_and_subjective_perception,2020.2.10,60.10826761253875,
1,0.35,testing,1000,1,,,,,,,,,0,0,0,0,,,,,2,1,9,1,495.1261095689988,None,d,0.5532251719996566,495.2263553720004,None,494.62583223699767,495.0428711349996,495.80957126700014,496.3097501659977,495.80957126700014,None,47,47,0,None,None,11,001,exponential,gyrb,0.35-0.75,2021_May_19_1305,color_judgement_and_subjective_perception,2020.2.10,60.10826761253875,
0,0.35,testing,1000,1,,,,,,,,,0,0,0,0,,,,,2,2,10,0,496.90983574299753,None,k,0.705083442000614,496.9945031499992,None,496.4097714210002,496.8266591449974,497.72717341799944,498.22750276799707,497.72717341799944,None,0,24,0,None,None,11,001,exponential,gyrb,0.35-0.75,2021_May_19_1305,color_judgement_and_subjective_perception,2020.2.10,60.10826761253875,
2,0.35,testing,1000,1,,,,,,,,,0,0,0,0,,,,,2,3,11,2,498.8277668720002,None,d,0.6038572159995965,498.92772032799985,None,498.3272957249974,498.7442834100002,499.56100996199893,500.0611790490002,499.56100996199893,None,41,14,0,None,None,11,001,exponential,gyrb,0.35-0.75,2021_May_19_1305,color_judgement_and_subjective_perception,2020.2.10,60.10826761253875,
3,0.35,testing,1000,1,,,,,,,,,0,0,0,0,,,,,3,0,12,3,500.66120926700023,None,f,0.762155647000327,500.76130549200025,None,500.16102612199757,500.5779663760004,501.5445523019989,502.02902312199876,501.5445523019989,None,0,0,25,None,None,11,001,exponential,gyrb,0.35-0.75,2021_May_19_1305,color_judgement_and_subjective_perception,2020.2.10,60.10826761253875,
0,0.35,testing,1000,1,,,,,,,,,0,0,0,0,,,,,3,1,13,0,502.6290289999997,None,d,0.8104950919987459,502.7290886230003,None,502.1289301509969,502.5459064869974,503.56504864700037,504.06266294099987,503.56504864700037,None,0,26,0,None,None,11,001,exponential,gyrb,0.35-0.75,2021_May_19_1305,color_judgement_and_subjective_perception,2020.2.10,60.10826761253875,
2,0.35,testing,1000,1,,,,,,,,,0,0,0,0,,,,,3,2,14,2,504.6630030969973,None,j,0.6807950889997301,504.76274993399784,None,504.1624764929984,504.57939214900034,505.4626303829973,505.9627474489971,505.4626303829973,None,43,14,0,None,None,11,001,exponential,gyrb,0.35-0.75,2021_May_19_1305,color_judgement_and_subjective_perception,2020.2.10,60.10826761253875,
3,0.35,testing,1000,1,,,,,,,,,0,0,0,0,,,,,3,3,15,3,506.56300327699864,None,j,0.4445267570008582,506.663052033,None,506.0627408759974,506.4795869249974,507.13177695899867,507.6307672080002,507.13177695899867,None,0,0,25,None,None,11,001,exponential,gyrb,0.35-0.75,2021_May_19_1305,color_judgement_and_subjective_perception,2020.2.10,60.10826761253875,
1,0.35,testing,1000,1,,,,,,,,,0,0,0,0,,,,,4,0,16,1,508.23058485399815,None,j,0.7689071240019985,508.3306766509995,None,507.730425709,508.147381175997,509.13073416000043,509.6310082130003,509.13073416000043,None,49,49,0,None,None,11,001,exponential,gyrb,0.35-0.75,2021_May_19_1305,color_judgement_and_subjective_perception,2020.2.10,60.10826761253875,
1,0.35,testing,1000,1,,,,,,,,,0,0,0,0,,,,,4,1,17,1,510.23111333499764,None,f,0.6964828820018738,510.3310983099982,None,509.73092401399845,510.1475744439995,511.04904469999747,511.5478422369997,511.04904469999747,None,51,51,0,None,None,11,001,exponential,gyrb,0.35-0.75,2021_May_19_1305,color_judgement_and_subjective_perception,2020.2.10,60.10826761253875,
0,0.35,testing,1000,1,,,,,,,,,0,0,0,0,,,,,4,2,18,0,512.1321369849975,None,f,0.7313411940012884,512.2322275730003,None,511.6476752979979,512.0488641649972,512.9837461429997,513.4823016929986,512.9837461429997,None,0,22,0,None,None,11,001,exponential,gyrb,0.35-0.75,2021_May_19_1305,color_judgement_and_subjective_perception,2020.2.10,60.10826761253875,
1,0.35,testing,1000,1,,,,,,,,,0,0,0,0,,,,,4,3,19,1,514.0825686339995,None,d,0.5250551600001927,514.182541037997,None,513.5821930299971,513.9990530049981,514.7324447389983,515.2326197980001,514.7324447389983,None,52,52,0,None,None,11,001,exponential,gyrb,0.35-0.75,2021_May_19_1305,color_judgement_and_subjective_perception,2020.2.10,60.10826761253875,
2,0.35,testing,1000,1,,,,,,,,,0,0,0,0,,,,,5,0,20,2,515.8327467679992,None,k,0.6549259890016401,515.9326778239993,None,515.3325355489978,515.7493167590001,516.6160756979989,517.1005822240004,516.6160756979989,None,42,14,0,None,None,11,001,exponential,gyrb,0.35-0.75,2021_May_19_1305,color_judgement_and_subjective_perception,2020.2.10,60.10826761253875,
3,0.35,testing,1000,1,,,,,,,,,0,0,0,0,,,,,5,1,21,3,517.7005635489986,None,j,0.8273229780024849,517.8003205889981,None,517.2003460469969,517.6170243429988,518.650432659997,519.150835141998,518.650432659997,None,0,0,28,None,None,11,001,exponential,gyrb,0.35-0.75,2021_May_19_1305,color_judgement_and_subjective_perception,2020.2.10,60.10826761253875,
1,0.35,testing,1000,1,,,,,,,,,0,0,0,0,,,,,5,2,22,1,519.7509440569993,None,d,0.5847130520014616,519.8508712939984,None,519.250559715998,519.6675500339989,520.4674338209988,520.9677026889985,520.4674338209988,None,56,56,0,None,None,11,001,exponential,gyrb,0.35-0.75,2021_May_19_1305,color_judgement_and_subjective_perception,2020.2.10,60.10826761253875,
0,0.35,testing,1000,1,,,,,,,,,0,0,0,0,,,,,5,3,23,0,521.5678324119981,None,f,0.4718270039993513,521.6677588999992,None,521.0673875699977,521.4843105559994,522.168548540998,522.6686592879996,522.168548540998,None,0,26,0,None,None,11,001,exponential,gyrb,0.35-0.75,2021_May_19_1305,color_judgement_and_subjective_perception,2020.2.10,60.10826761253875,
0,0.35,testing,1000,1,,,,,,,,,0,0,0,0,,,,,6,0,24,0,523.2687457119973,None,d,0.6027846409997437,523.3687978449998,None,522.7684617149971,523.1854012089971,524.0036234619984,524.5023687399989,524.0036234619984,None,0,28,0,None,None,11,001,exponential,gyrb,0.35-0.75,2021_May_19_1305,color_judgement_and_subjective_perception,2020.2.10,60.10826761253875,
3,0.35,testing,1000,1,,,,,,,,,0,0,0,0,,,,,6,1,25,3,525.1023746069986,None,k,0.649120131998643,525.2024351090004,None,524.6022414719992,525.0191491029982,525.8690945050002,526.3693367479973,525.8690945050002,None,0,0,33,None,None,11,001,exponential,gyrb,0.35-0.75,2021_May_19_1305,color_judgement_and_subjective_perception,2020.2.10,60.10826761253875,
0,0.35,testing,1000,1,,,,,,,,,0,0,0,0,,,,,6,2,26,0,526.9693883,None,j,0.5178902679981547,527.0536626089997,None,526.4691159519971,526.8860905029978,527.6050658940003,528.1037160499982,527.6050658940003,None,0,27,0,None,None,11,001,exponential,gyrb,0.35-0.75,2021_May_19_1305,color_judgement_and_subjective_perception,2020.2.10,60.10826761253875,
0,0.35,testing,1000,1,,,,,,,,,0,0,0,0,,,,,6,3,27,0,528.7035798319994,None,None,-1,528.8036544429997,None,528.2035398139997,528.6203614709993,529.7208168469988,530.2205574869986,529.7208168469988,None,0,25,0,None,None,11,001,exponential,gyrb,0.35-0.75,2021_May_19_1305,color_judgement_and_subjective_perception,2020.2.10,60.10826761253875,
2,0.35,testing,1000,1,,,,,,,,,0,0,0,0,,,,,7,0,28,2,530.8206366039994,None,k,0.5868315270017774,530.9207346219991,None,530.3204950029976,530.7375418349984,531.538965427997,532.0217977389984,531.538965427997,None,47,16,0,None,None,11,001,exponential,gyrb,0.35-0.75,2021_May_19_1305,color_judgement_and_subjective_perception,2020.2.10,60.10826761253875,
3,0.35,testing,1000,1,,,,,,,,,0,0,0,0,,,,,7,1,29,3,532.6217965670003,None,f,0.5856813539976429,532.7219062879994,None,532.121605387998,532.5385546589969,533.3384776549974,533.8387197029988,533.3384776549974,None,0,0,32,None,None,11,001,exponential,gyrb,0.35-0.75,2021_May_19_1305,color_judgement_and_subjective_perception,2020.2.10,60.10826761253875,
0,0.35,testing,1000,1,,,,,,,,,0,0,0,0,,,,,7,2,30,0,534.4389144029992,None,j,0.256572744998266,534.5389807949978,None,533.9385741839978,534.355570148,534.8222255159999,535.322278366999,534.8222255159999,None,0,29,0,None,None,11,001,exponential,gyrb,0.35-0.75,2021_May_19_1305,color_judgement_and_subjective_perception,2020.2.10,60.10826761253875,
3,0.35,testing,1000,1,,,,,,,,,0,0,0,0,,,,,7,3,31,3,535.9224244789984,None,k,0.4851879720008583,536.0224000460003,None,535.4221185989991,535.8389439359999,536.5406145559973,537.023450239998,536.5406145559973,None,0,0,35,None,None,11,001,exponential,gyrb,0.35-0.75,2021_May_19_1305,color_judgement_and_subjective_perception,2020.2.10,60.10826761253875,
0,0.35,testing,1000,1,,,,,,,,,0,0,0,0,,,,,8,0,32,0,537.6234123759968,None,d,0.6002711649998673,537.72331003,None,537.1232037599984,537.540038985997,538.3405902140003,538.8403169849989,538.3405902140003,None,0,30,0,None,None,11,001,exponential,gyrb,0.35-0.75,2021_May_19_1305,color_judgement_and_subjective_perception,2020.2.10,60.10826761253875,
3,0.35,testing,1000,1,,,,,,,,,0,0,0,0,,,,,8,1,33,3,539.4404323179988,None,j,0.7270680329966126,539.5405140570001,None,538.940124255998,539.3570731519976,540.292035315997,540.7906970229997,540.292035315997,None,0,0,32,None,None,11,001,exponential,gyrb,0.35-0.75,2021_May_19_1305,color_judgement_and_subjective_perception,2020.2.10,60.10826761253875,
0,0.35,testing,1000,1,,,,,,,,,0,0,0,0,,,,,8,2,34,0,541.3906975589998,None,f,0.5688599669992982,541.490723005998,None,540.8903365650003,541.3071695229992,542.0914889969972,542.5917076999976,542.0914889969972,None,0,27,0,None,None,11,001,exponential,gyrb,0.35-0.75,2021_May_19_1305,color_judgement_and_subjective_perception,2020.2.10,60.10826761253875,
0,0.35,testing,1000,1,,,,,,,,,0,0,0,0,,,,,8,3,35,0,543.1918917179974,None,k,0.2397675980027998,543.2918177749998,None,542.6915895709972,543.1083607949986,543.5583362189973,544.058613893998,543.5583362189973,None,0,29,0,None,None,11,001,exponential,gyrb,0.35-0.75,2021_May_19_1305,color_judgement_and_subjective_perception,2020.2.10,60.10826761253875,
1,0.35,testing,1000,1,,,,,,,,,0,0,0,0,,,,,9,0,36,1,544.6589740139971,None,d,0.4687298490025569,544.7588362959978,None,544.1584063230002,544.5753593489972,545.258705303997,545.759023532999,545.258705303997,None,61,61,0,None,None,11,001,exponential,gyrb,0.35-0.75,2021_May_19_1305,color_judgement_and_subjective_perception,2020.2.10,60.10826761253875,
3,0.35,testing,1000,1,,,,,,,,,0,0,0,0,,,,,9,1,37,3,546.3590050569983,None,j,0.8087136060021294,546.4588724869973,None,545.8587279549974,546.2756857479981,547.2932211249972,547.7933925809994,547.2932211249972,None,0,0,33,None,None,11,001,exponential,gyrb,0.35-0.75,2021_May_19_1305,color_judgement_and_subjective_perception,2020.2.10,60.10826761253875,
0,0.35,testing,1000,1,,,,,,,,,0,0,0,0,,,,,9,2,38,0,548.3934195929978,None,f,0.590120864999335,548.4934375919984,None,547.8930092739974,548.3101361279987,549.1100410139989,549.6103963489986,549.1100410139989,None,0,33,0,None,None,11,001,exponential,gyrb,0.35-0.75,2021_May_19_1305,color_judgement_and_subjective_perception,2020.2.10,60.10826761253875,
0,0.35,testing,1000,1,,,,,,,,,0,0,0,0,,,,,9,3,39,0,550.2102833829995,None,d,0.581178025000554,550.3103999239975,None,549.7103181189996,550.1271114029987,550.9115023319973,551.4104691709981,550.9115023319973,None,0,35,0,None,None,11,001,exponential,gyrb,0.35-0.75,2021_May_19_1305,color_judgement_and_subjective_perception,2020.2.10,60.10826761253875,
0,0.35,testing,1000,1,,,,,,,,,0,0,0,0,,,,,10,0,40,0,552.0019777319976,None,None,-1,552.0947969909976,None,551.5104277589999,551.9272872099973,553.0115640789991,553.5115930169995,553.0115640789991,None,0,35,0,None,None,11,001,exponential,gyrb,0.35-0.75,2021_May_19_1305,color_judgement_and_subjective_perception,2020.2.10,60.10826761253875,
3,0.35,testing,1000,1,,,,,,,,,0,0,0,0,,,,,10,1,41,3,554.1116662049972,None,j,0.6399538009973185,554.2115762249996,None,553.6114272069972,554.0281585439989,554.8797078639982,555.3784346680004,554.8797078639982,None,0,0,38,None,None,11,001,exponential,gyrb,0.35-0.75,2021_May_19_1305,color_judgement_and_subjective_perception,2020.2.10,60.10826761253875,
3,0.35,testing,1000,1,,,,,,,,,0,0,0,0,,,,,10,2,42,3,555.9788093159987,None,None,-1,556.0786593899975,None,555.4785819589997,555.8953641810003,556.9947903039974,557.4799433859989,556.9947903039974,None,0,0,40,None,None,11,001,exponential,gyrb,0.35-0.75,2021_May_19_1305,color_judgement_and_subjective_perception,2020.2.10,60.10826761253875,
3,0.35,testing,1000,1,,,,,,,,,0,0,0,0,,,,,10,3,43,3,558.0798873940003,None,k,0.5597802919983224,558.1797983119977,None,557.579387722999,557.9964319350001,558.7647332919987,559.2634257579994,558.7647332919987,None,0,0,42,None,None,11,001,exponential,gyrb,0.35-0.75,2021_May_19_1305,color_judgement_and_subjective_perception,2020.2.10,60.10826761253875,
2,0.35,testing,1000,1,,,,,,,,,0,0,0,0,,,,,11,0,44,2,559.8636977249989,None,d,0.6321505790001538,559.9634541679989,None,559.363282864997,559.780202572998,560.6150347859984,561.1136049870001,560.6150347859984,None,56,19,0,None,None,11,001,exponential,gyrb,0.35-0.75,2021_May_19_1305,color_judgement_and_subjective_perception,2020.2.10,60.10826761253875,
3,0.35,testing,1000,1,,,,,,,,,0,0,0,0,,,,,11,1,45,3,561.713861770997,None,f,0.1978676029975759,561.8137365980001,None,561.2135017439978,561.630402857998,562.0312285639993,562.5314734789972,562.0312285639993,None,0,0,41,None,None,11,001,exponential,gyrb,0.35-0.75,2021_May_19_1305,color_judgement_and_subjective_perception,2020.2.10,60.10826761253875,
1,0.35,testing,1000,1,,,,,,,,,0,0,0,0,,,,,11,2,46,1,563.1312830499992,None,d,0.46829870200235746,563.231293916997,None,562.6310943279968,563.0480668469972,563.7313482279969,564.2317708219998,563.7313482279969,None,70,70,0,None,None,11,001,exponential,gyrb,0.35-0.75,2021_May_19_1305,color_judgement_and_subjective_perception,2020.2.10,60.10826761253875,
0,0.35,testing,1000,1,,,,,,,,,0,0,0,0,,,,,11,3,47,0,564.8318193769992,None,j,0.6879863620015385,564.9316352539972,None,564.3313769179986,564.7506999629986,565.6484216259996,566.1486013029971,565.6484216259996,None,0,41,0,None,None,11,001,exponential,gyrb,0.35-0.75,2021_May_19_1305,color_judgement_and_subjective_perception,2020.2.10,60.10826761253875,
2,0.35,testing,1000,1,,,,,,,,,0,0,0,0,,,,,12,0,48,2,566.7487157639989,None,j,0.7308870119995845,566.8486894909984,None,566.2484397999979,566.6652841260002,567.6008232519998,568.0996657249998,567.6008232519998,None,61,20,0,None,None,11,001,exponential,gyrb,0.35-0.75,2021_May_19_1305,color_judgement_and_subjective_perception,2020.2.10,60.10826761253875,
2,0.35,testing,1000,1,,,,,,,,,0,0,0,0,,,,,12,1,49,2,568.6997555239977,None,j,0.5637399830011418,568.7998337440004,None,568.1994829739997,568.6163281109984,569.3831021659971,569.8832960420004,569.3831021659971,None,59,20,0,None,None,11,001,exponential,gyrb,0.35-0.75,2021_May_19_1305,color_judgement_and_subjective_perception,2020.2.10,60.10826761253875,
3,0.35,testing,1000,1,,,,,,,,,0,0,0,0,,,,,12,2,50,3,570.4833103829988,None,j,0.4201950449969445,570.5833950019987,None,569.9832065629998,570.4001424079979,571.0345228409969,571.5335430529994,571.0345228409969,None,0,0,43,None,None,11,001,exponential,gyrb,0.35-0.75,2021_May_19_1305,color_judgement_and_subjective_perception,2020.2.10,60.10826761253875,
1,0.35,testing,1000,1,,,,,,,,,0,0,0,0,,,,,12,3,51,1,572.1177688009993,None,d,0.5617278120007541,572.2178477889975,None,571.6333076339979,572.0346073919973,572.8009558479971,573.301208015997,572.8009558479971,None,70,70,0,None,None,11,001,exponential,gyrb,0.35-0.75,2021_May_19_1305,color_judgement_and_subjective_perception,2020.2.10,60.10826761253875,
3,0.35,testing,1000,1,,,,,,,,,0,0,0,0,,,,,13,0,52,3,573.9013899359998,None,j,0.8661445950019697,574.0014275760004,None,573.4010163860003,573.8180176949973,574.8847535809982,575.3849231269996,574.8847535809982,None,0,0,44,None,None,11,001,exponential,gyrb,0.35-0.75,2021_May_19_1305,color_judgement_and_subjective_perception,2020.2.10,60.10826761253875,
1,0.35,testing,1000,1,,,,,,,,,0,0,0,0,,,,,13,1,53,1,575.9849548589991,None,f,0.8547123530006502,576.0848906939973,None,575.4847682330001,575.9017527199976,576.9697398709977,577.452781437998,576.9697398709977,None,73,73,0,None,None,11,001,exponential,gyrb,0.35-0.75,2021_May_19_1305,color_judgement_and_subjective_perception,2020.2.10,60.10826761253875,
1,0.35,testing,1000,1,,,,,,,,,0,0,0,0,,,,,13,2,54,1,578.0528144540003,None,f,0.41875636799886706,578.1527971510004,None,577.5526268449976,577.9693945379986,578.6028331419984,579.103015056,578.6028331419984,None,73,73,0,None,None,11,001,exponential,gyrb,0.35-0.75,2021_May_19_1305,color_judgement_and_subjective_perception,2020.2.10,60.10826761253875,
0,0.35,testing,1000,1,,,,,,,,,0,0,0,0,,,,,13,3,55,0,579.7031171799972,None,k,0.8724882269998488,579.8030680499978,None,579.2027126859975,579.6198257590004,580.7045133489992,581.203182281999,580.7045133489992,None,0,40,0,None,None,11,001,exponential,gyrb,0.35-0.75,2021_May_19_1305,color_judgement_and_subjective_perception,2020.2.10,60.10826761253875,
3,0.35,testing,1000,1,,,,,,,,,0,0,0,0,,,,,14,0,56,3,581.8034270899989,None,j,0.6041430670011323,581.9034556049992,None,581.3031789149973,581.7201002959991,582.5375757509973,583.0377593979974,582.5375757509973,None,0,0,43,None,None,11,001,exponential,gyrb,0.35-0.75,2021_May_19_1305,color_judgement_and_subjective_perception,2020.2.10,60.10826761253875,
2,0.35,testing,1000,1,,,,,,,,,0,0,0,0,,,,,14,1,57,2,583.637857376998,None,None,-1,583.7378306639985,None,583.1375534379986,583.554433178997,584.6550308859987,585.1548016609995,584.6550308859987,None,56,19,0,None,None,11,001,exponential,gyrb,0.35-0.75,2021_May_19_1305,color_judgement_and_subjective_perception,2020.2.10,60.10826761253875,
1,0.35,testing,1000,1,,,,,,,,,0,0,0,0,,,,,14,2,58,1,585.7548857080001,None,f,0.6206802150009025,585.8549006299982,None,585.2546238569994,585.671413737,586.5063442169994,587.0037999779997,586.5063442169994,None,72,72,0,None,None,11,001,exponential,gyrb,0.35-0.75,2021_May_19_1305,color_judgement_and_subjective_perception,2020.2.10,60.10826761253875,
2,0.35,testing,1000,1,,,,,,,,,0,0,0,0,,,,,14,3,59,2,587.5892548579977,None,j,0.3143970349992742,587.6891742589978,None,587.0890708269981,587.5060730379992,588.0224822529999,588.5227154589993,588.0224822529999,None,55,18,0,None,None,11,001,exponential,gyrb,0.35-0.75,2021_May_19_1305,color_judgement_and_subjective_perception,2020.2.10,60.10826761253875,
1,0.35,testing,1000,1,,,,,,,,,0,0,0,0,,,,,15,0,60,1,589.1229773039995,None,d,0.5086371369980043,589.2229425769983,None,588.6226891519982,589.0394117309988,589.7574248089986,590.2563172640002,589.7574248089986,None,69,69,0,None,None,11,001,exponential,gyrb,0.35-0.75,2021_May_19_1305,color_judgement_and_subjective_perception,2020.2.10,60.10826761253875,
0,0.35,testing,1000,1,,,,,,,,,0,0,0,0,,,,,15,1,61,0,590.856413579997,None,d,0.8550530840002466,590.9565185289975,None,590.3562773899976,590.7730042359981,591.8416027109997,592.324135259998,591.8416027109997,None,0,39,0,None,None,11,001,exponential,gyrb,0.35-0.75,2021_May_19_1305,color_judgement_and_subjective_perception,2020.2.10,60.10826761253875,
