color_idx_ind,target_acc,mode,response_deadline,block_number,trials_training.thisRepN,trials_training.thisTrialN,trials_training.thisN,trials_training.thisIndex,trials_training_deadline.thisRepN,trials_training_deadline.thisTrialN,trials_training_deadline.thisN,trials_training_deadline.thisIndex,blocks.thisRepN,blocks.thisTrialN,blocks.thisN,blocks.thisIndex,trials_staircase.thisRepN,trials_staircase.thisTrialN,trials_staircase.thisN,trials_staircase.thisIndex,trials.thisRepN,trials.thisTrialN,trials.thisN,trials.thisIndex,stimulus_ind.started,stimulus_ind.stopped,key_resp_ind.keys,key_resp_ind.rt,key_resp_ind.started,key_resp_ind.stopped,fixation_cross_1_ind.started,fixation_cross_1_ind.stopped,text.started,text.stopped,dummy_text.started,dummy_text.stopped,stim_ind_color_rgb_r,stim_ind_color_rgb_g,stim_ind_color_rgb_b,text_break_block.started,text_break_block.stopped,participant,session,accuracy_weighting,color_mapping,block_difficulties,date,expName,psychopyVersion,frameRate,
3,0.9,training,1000000000000,,0,0,0,0,,,,,,,,,,,,,,,,,73.69936325099843,None,k,3.8539239469973836,73.799396497001,None,73.20507979700051,73.61613393299922,77.68804644999909,78.18430157499824,77.68804644999909,None,,,,,,12,001,exponential,gyrb,0.75-0.35,2021_May_19_1430,color_judgement_and_subjective_perception,2020.2.10,60.037286996650636,
0,0.9,training,1000000000000,,0,1,1,1,,,,,,,,,,,,,,,,,78.78421634500046,None,d,1.2328268789970025,78.88445484800104,None,78.28387809600099,78.70086425000045,80.1341353200005,80.63433950599938,80.1341353200005,None,,,,,,12,001,exponential,gyrb,0.75-0.35,2021_May_19_1430,color_judgement_and_subjective_perception,2020.2.10,60.037286996650636,
1,0.9,training,1000000000000,,0,2,2,2,,,,,,,,,,,,,,,,,81.2186810159983,None,f,0.7986384939977142,81.31868604400006,None,80.7342751920005,81.13546820600095,82.13524035999944,82.63558016000025,82.13524035999944,None,,,,,,12,001,exponential,gyrb,0.75-0.35,2021_May_19_1430,color_judgement_and_subjective_perception,2020.2.10,60.037286996650636,
3,0.9,training,1000000000000,,0,3,3,3,,,,,,,,,,,,,,,,,83.23562672999833,None,k,0.7816539499981445,83.33565629900113,None,82.73545705200013,83.1521915810008,84.13574762200005,84.63593291500001,84.13574762200005,None,,,,,,12,001,exponential,gyrb,0.75-0.35,2021_May_19_1430,color_judgement_and_subjective_perception,2020.2.10,60.037286996650636,
1,0.9,training,1000000000000,,0,4,4,4,,,,,,,,,,,,,,,,,85.23597047500152,None,f,0.8212539950000064,85.3360497040012,None,84.73580662099994,85.1527754130002,86.18690384000001,86.68711981700108,86.18690384000001,None,,,,,,12,001,exponential,gyrb,0.75-0.35,2021_May_19_1430,color_judgement_and_subjective_perception,2020.2.10,60.037286996650636,
3,0.9,training,1000000000000,,0,5,5,5,,,,,,,,,,,,,,,,,87.2871281810003,None,k,0.7302028949998203,87.38711939199857,None,86.7871546130009,87.2040398019999,88.13712455299901,88.6375085030013,88.13712455299901,None,,,,,,12,001,exponential,gyrb,0.75-0.35,2021_May_19_1430,color_judgement_and_subjective_perception,2020.2.10,60.037286996650636,
2,0.9,training,1000000000000,,0,6,6,6,,,,,,,,,,,,,,,,,89.23765386800005,None,j,0.6837056380027207,89.33763584800181,None,88.73737873600112,89.15419408999878,90.05415317400184,90.55435412299994,90.05415317400184,None,,,,,,12,001,exponential,gyrb,0.75-0.35,2021_May_19_1430,color_judgement_and_subjective_perception,2020.2.10,60.037286996650636,
1,0.9,training,1000000000000,,0,7,7,7,,,,,,,,,,,,,,,,,91.13870709399998,None,f,0.7745889649995661,91.23871958200107,None,90.65438203400117,91.05548236699906,92.03867356499904,92.53904967199924,92.03867356499904,None,,,,,,12,001,exponential,gyrb,0.75-0.35,2021_May_19_1430,color_judgement_and_subjective_perception,2020.2.10,60.037286996650636,
0,0.9,training,1000000000000,,0,8,8,8,,,,,,,,,,,,,,,,,93.13903980300165,None,d,0.6623538240019116,93.23897716699867,None,92.63882067099985,93.05560486800096,93.92219787100112,94.42254213699925,93.92219787100112,None,,,,,,12,001,exponential,gyrb,0.75-0.35,2021_May_19_1430,color_judgement_and_subjective_perception,2020.2.10,60.037286996650636,
2,0.9,training,1000000000000,,0,9,9,9,,,,,,,,,,,,,,,,,95.02259113900072,None,j,0.7867763480026042,95.12253253499875,None,94.5224328760014,94.9392516250009,95.93910469899856,96.42360864500006,95.93910469899856,None,,,,,,12,001,exponential,gyrb,0.75-0.35,2021_May_19_1430,color_judgement_and_subjective_perception,2020.2.10,60.037286996650636,
1,0.9,training,1000000000000,,0,10,10,10,,,,,,,,,,,,,,,,,97.02363310299916,None,f,0.8496168849997048,97.12368396199963,None,96.52366192399859,96.94044967000082,97.99030457299887,98.490593393999,97.99030457299887,None,,,,,,12,001,exponential,gyrb,0.75-0.35,2021_May_19_1430,color_judgement_and_subjective_perception,2020.2.10,60.037286996650636,
2,0.9,training,1000000000000,,0,11,11,11,,,,,,,,,,,,,,,,,99.09061288000157,None,j,0.8545973270011018,99.19070408400148,None,98.5904702279986,99.0074529980011,100.07390782700168,100.57390373499948,100.07390782700168,None,,,,,,12,001,exponential,gyrb,0.75-0.35,2021_May_19_1430,color_judgement_and_subjective_perception,2020.2.10,60.037286996650636,
3,0.9,training,1000000000000,,0,12,12,12,,,,,,,,,,,,,,,,,101.15836922499875,None,k,0.6109530889989401,101.25834662499983,None,100.67394147400046,101.07490409800084,101.89164528900073,102.39180364300046,101.89164528900073,None,,,,,,12,001,exponential,gyrb,0.75-0.35,2021_May_19_1430,color_judgement_and_subjective_perception,2020.2.10,60.037286996650636,
1,0.9,training,1000000000000,,0,13,13,13,,,,,,,,,,,,,,,,,102.99185230999865,None,f,0.8734020010015229,103.09189723700183,None,102.49173788199914,102.90850029799913,103.9920537120015,104.49224424899876,103.9920537120015,None,,,,,,12,001,exponential,gyrb,0.75-0.35,2021_May_19_1430,color_judgement_and_subjective_perception,2020.2.10,60.037286996650636,
0,0.9,training,1000000000000,,0,14,14,14,,,,,,,,,,,,,,,,,105.09230877099981,None,d,0.6769283610010461,105.19237425000028,None,104.5922182860013,105.00900236400048,105.89219276600124,106.37677501299913,105.89219276600124,None,,,,,,12,001,exponential,gyrb,0.75-0.35,2021_May_19_1430,color_judgement_and_subjective_perception,2020.2.10,60.037286996650636,
3,0.9,training,1000000000000,,0,15,15,15,,,,,,,,,,,,,,,,,106.97687284100175,None,k,0.6164181029998872,107.07689304499945,None,106.47671407999951,106.89350565600034,107.71006510000007,108.2103074000006,107.71006510000007,None,,,,,,12,001,exponential,gyrb,0.75-0.35,2021_May_19_1430,color_judgement_and_subjective_perception,2020.2.10,60.037286996650636,
1,0.9,training,1000000000000,,0,16,16,16,,,,,,,,,,,,,,,,,108.8105640520007,None,f,0.6707752000002074,108.91055938999853,None,108.31030007300069,108.72721258800084,109.61043602200152,110.11076583600152,109.61043602200152,None,,,,,,12,001,exponential,gyrb,0.75-0.35,2021_May_19_1430,color_judgement_and_subjective_perception,2020.2.10,60.037286996650636,
2,0.9,training,1000000000000,,0,17,17,17,,,,,,,,,,,,,,,,,110.71070619999955,None,j,0.6104740620030498,110.8108532160004,None,110.21062142500159,110.62734264499886,111.44492060099947,111.94505100300012,111.44492060099947,None,,,,,,12,001,exponential,gyrb,0.75-0.35,2021_May_19_1430,color_judgement_and_subjective_perception,2020.2.10,60.037286996650636,
0,0.9,training,1000000000000,,0,18,18,18,,,,,,,,,,,,,,,,,112.54520666000099,None,d,0.8160417869985395,112.64527062400157,None,112.04496959099924,112.46179028999904,113.47838135300117,113.97884484099995,113.47838135300117,None,,,,,,12,001,exponential,gyrb,0.75-0.35,2021_May_19_1430,color_judgement_and_subjective_perception,2020.2.10,60.037286996650636,
3,0.9,training,1000000000000,,0,19,19,19,,,,,,,,,,,,,,,,,114.5788656850018,None,k,0.6385450179986947,114.67876276300012,None,114.07869619900157,114.49557966299835,115.3453668559996,115.84562421499868,115.3453668559996,None,,,,,,12,001,exponential,gyrb,0.75-0.35,2021_May_19_1430,color_judgement_and_subjective_perception,2020.2.10,60.037286996650636,
0,0.9,training,1000000000000,,0,20,20,20,,,,,,,,,,,,,,,,,116.43011295500037,None,d,0.6111020120006287,116.53025701899969,None,115.9455012819999,116.34657345300002,117.16335382800025,117.66353705000074,117.16335382800025,None,,,,,,12,001,exponential,gyrb,0.75-0.35,2021_May_19_1430,color_judgement_and_subjective_perception,2020.2.10,60.037286996650636,
2,0.9,training,1000000000000,,0,21,21,21,,,,,,,,,,,,,,,,,118.26355440499901,None,j,0.4897952749997785,118.36354635300086,None,117.76330392100135,118.18009411000094,118.8800646339987,119.38031520400182,118.8800646339987,None,,,,,,12,001,exponential,gyrb,0.75-0.35,2021_May_19_1430,color_judgement_and_subjective_perception,2020.2.10,60.037286996650636,
1,0.9,training,1000000000000,,0,22,22,22,,,,,,,,,,,,,,,,,119.9803083279985,None,f,0.5890839130006498,120.08024898900112,None,119.48032472200066,119.89694511199923,120.69681682800001,121.18129578300068,120.69681682800001,None,,,,,,12,001,exponential,gyrb,0.75-0.35,2021_May_19_1430,color_judgement_and_subjective_perception,2020.2.10,60.037286996650636,
0,0.9,training,1000000000000,,0,23,23,23,,,,,,,,,,,,,,,,,121.78135053499864,None,d,0.7637926500028698,121.88153205799972,None,121.28138286800095,121.69805493999957,122.66464427399842,123.16488586700143,122.66464427399842,None,,,,,,12,001,exponential,gyrb,0.75-0.35,2021_May_19_1430,color_judgement_and_subjective_perception,2020.2.10,60.037286996650636,
2,0.9,training,1000000000000,,0,24,24,24,,,,,,,,,,,,,,,,,123.76502868099851,None,j,0.7402489080013765,123.86504092399991,None,123.26481857399995,123.68184888000178,124.63180889399882,125.13184310799988,124.63180889399882,None,,,,,,12,001,exponential,gyrb,0.75-0.35,2021_May_19_1430,color_judgement_and_subjective_perception,2020.2.10,60.037286996650636,
3,0.9,training,1000000000000,,0,25,25,25,,,,,,,,,,,,,,,,,125.73216956399847,None,k,0.5811391989991535,125.8321608840015,None,125.23178931700022,125.64888150999832,126.43289263000042,126.9330939850006,126.43289263000042,None,,,,,,12,001,exponential,gyrb,0.75-0.35,2021_May_19_1430,color_judgement_and_subjective_perception,2020.2.10,60.037286996650636,
1,0.9,training,1000000000000,,0,26,26,26,,,,,,,,,,,,,,,,,127.53310561399849,None,f,0.6841393149989017,127.63317839400042,None,127.03298218399868,127.44996438299859,128.34978870199848,128.8501077209985,128.34978870199848,None,,,,,,12,001,exponential,gyrb,0.75-0.35,2021_May_19_1430,color_judgement_and_subjective_perception,2020.2.10,60.037286996650636,
2,0.9,training,1000000000000,,0,27,27,27,,,,,,,,,,,,,,,,,129.45014366000032,None,j,0.5670933490000607,129.55018103800103,None,128.95000677200005,129.36694373299906,130.15010009899925,130.65023814600136,130.15010009899925,None,,,,,,12,001,exponential,gyrb,0.75-0.35,2021_May_19_1430,color_judgement_and_subjective_perception,2020.2.10,60.037286996650636,
0,0.9,training,1000000000000,,0,28,28,28,,,,,,,,,,,,,,,,,131.2346668350001,None,d,0.6866097029997036,131.33470586199837,None,130.750109255001,131.1514349479985,132.05128583400074,132.55148348999865,132.05128583400074,None,,,,,,12,001,exponential,gyrb,0.75-0.35,2021_May_19_1430,color_judgement_and_subjective_perception,2020.2.10,60.037286996650636,
2,0.9,training,1000000000000,,0,29,29,29,,,,,,,,,,,,,,,,,133.15152908299933,None,j,0.5457532200016431,133.25155400899894,None,132.6513970829983,133.06825637599832,133.81827426200107,134.31840223399922,133.81827426200107,None,,,,,,12,001,exponential,gyrb,0.75-0.35,2021_May_19_1430,color_judgement_and_subjective_perception,2020.2.10,60.037286996650636,
0,0.9,training,1000000000000,,0,30,30,30,,,,,,,,,,,,,,,,,134.91848137000125,None,d,0.6828748980005912,135.01845038600004,None,134.41832168100154,134.83529356500003,135.71858413500013,136.20296836800117,135.71858413500013,None,,,,,,12,001,exponential,gyrb,0.75-0.35,2021_May_19_1430,color_judgement_and_subjective_perception,2020.2.10,60.037286996650636,
3,0.9,training,1000000000000,,0,31,31,31,,,,,,,,,,,,,,,,,136.80299144400124,None,k,0.5502707609994104,136.9030104500016,None,136.30287601500095,136.71963969400167,137.4862146279993,137.98645599700103,137.4862146279993,None,,,,,,12,001,exponential,gyrb,0.75-0.35,2021_May_19_1430,color_judgement_and_subjective_perception,2020.2.10,60.037286996650636,
2,0.9,training,1000,,,,,,0,0,0,0,,,,,,,,,,,,,146.00355582300108,None,j,0.7238658589994884,146.0894401930018,None,145.50876410099954,145.92170946199985,146.8395013900008,147.3396193769986,146.8395013900008,None,,,,,,12,001,exponential,gyrb,0.75-0.35,2021_May_19_1430,color_judgement_and_subjective_perception,2020.2.10,60.037286996650636,
3,0.9,training,1000,,,,,,0,1,1,1,,,,,,,,,,,,,147.93949353599965,None,k,0.5576757960006944,148.0396284060007,None,147.4393540960009,147.85626386999866,148.62284869200084,149.12310212300144,148.62284869200084,None,,,,,,12,001,exponential,gyrb,0.75-0.35,2021_May_19_1430,color_judgement_and_subjective_perception,2020.2.10,60.037286996650636,
2,0.9,training,1000,,,,,,0,2,2,2,,,,,,,,,,,,,149.72311352999895,None,j,0.4621918060001917,149.82317939000131,None,149.22302633599975,149.63992586500171,150.3065560089999,150.80663789699975,150.3065560089999,None,,,,,,12,001,exponential,gyrb,0.75-0.35,2021_May_19_1430,color_judgement_and_subjective_perception,2020.2.10,60.037286996650636,
3,0.9,training,1000,,,,,,0,3,3,3,,,,,,,,,,,,,151.39104661400052,None,k,0.5702356389992929,151.49107641199953,None,150.90660000700154,151.3076438579992,152.09092310599954,152.5911380739999,152.09092310599954,None,,,,,,12,001,exponential,gyrb,0.75-0.35,2021_May_19_1430,color_judgement_and_subjective_perception,2020.2.10,60.037286996650636,
1,0.9,training,1000,,,,,,0,4,4,4,,,,,,,,,,,,,153.19125100200108,None,f,0.7300548610000988,153.2912744899986,None,152.6910848970001,153.107963931001,154.04124454200064,154.54146227399906,154.04124454200064,None,,,,,,12,001,exponential,gyrb,0.75-0.35,2021_May_19_1430,color_judgement_and_subjective_perception,2020.2.10,60.037286996650636,
3,0.9,training,1000,,,,,,0,5,5,5,,,,,,,,,,,,,155.14147650800078,None,k,0.6518044829972496,155.2415072770018,None,154.64133028300057,155.05820617299833,155.92479541699868,156.4093122839986,155.92479541699868,None,,,,,,12,001,exponential,gyrb,0.75-0.35,2021_May_19_1430,color_judgement_and_subjective_perception,2020.2.10,60.037286996650636,
2,0.9,training,1000,,,,,,0,6,6,6,,,,,,,,,,,,,157.00933113200153,None,j,0.6719116819986084,157.10939896900163,None,156.50913862599919,156.9259601449994,157.8093006550007,158.29138169499856,157.8093006550007,None,,,,,,12,001,exponential,gyrb,0.75-0.35,2021_May_19_1430,color_judgement_and_subjective_perception,2020.2.10,60.037286996650636,
0,0.9,training,1000,,,,,,0,7,7,7,,,,,,,,,,,,,158.84306391200153,None,d,0.8948243240010925,158.92650473699905,None,158.37612462700054,158.75960149100138,159.84377566200055,160.3431455409991,159.84377566200055,None,,,,,,12,001,exponential,gyrb,0.75-0.35,2021_May_19_1430,color_judgement_and_subjective_perception,2020.2.10,60.037286996650636,
1,0.9,training,1000,,,,,,0,8,8,8,,,,,,,,,,,,,160.94323291199908,None,None,-1,161.02761743800147,None,160.44315637099862,160.85976531900087,161.94406566600082,162.44417800500014,161.94406566600082,None,,,,,,12,001,exponential,gyrb,0.75-0.35,2021_May_19_1430,color_judgement_and_subjective_perception,2020.2.10,60.037286996650636,
3,0.9,training,1000,,,,,,0,9,9,9,,,,,,,,,,,,,163.044182818001,None,k,0.5730799449993356,163.14424122199853,None,162.54403490500044,162.9608491559993,163.74427778500103,164.24443656600124,163.74427778500103,None,,,,,,12,001,exponential,gyrb,0.75-0.35,2021_May_19_1430,color_judgement_and_subjective_perception,2020.2.10,60.037286996650636,
0,0.9,training,1000,,,,,,0,10,10,10,,,,,,,,,,,,,164.84447565899973,None,d,0.5167343280008936,164.94454201199915,None,164.34439881700018,164.7609936150002,165.49456514800113,165.99463619000016,165.49456514800113,None,,,,,,12,001,exponential,gyrb,0.75-0.35,2021_May_19_1430,color_judgement_and_subjective_perception,2020.2.10,60.037286996650636,
2,0.9,training,1000,,,,,,0,11,11,11,,,,,,,,,,,,,166.57902431899856,None,j,0.5662736790000054,166.67903032899994,None,166.07890237500033,166.4957541570002,167.26229981600045,167.76268520500162,167.26229981600045,None,,,,,,12,001,exponential,gyrb,0.75-0.35,2021_May_19_1430,color_judgement_and_subjective_perception,2020.2.10,60.037286996650636,
3,0.9,training,1000,,,,,,0,12,12,12,,,,,,,,,,,,,168.3627246219985,None,k,0.3585877619989333,168.46272798800055,None,167.8624032379994,168.2791806540008,168.84595373000047,169.34615005399974,168.84595373000047,None,,,,,,12,001,exponential,gyrb,0.75-0.35,2021_May_19_1430,color_judgement_and_subjective_perception,2020.2.10,60.037286996650636,
2,0.9,training,1000,,,,,,0,13,13,13,,,,,,,,,,,,,169.94606867200127,None,j,0.39109503500003484,170.04620862400043,None,169.44610293000005,169.86297152000043,170.46291106599892,170.96305290700184,170.46291106599892,None,,,,,,12,001,exponential,gyrb,0.75-0.35,2021_May_19_1430,color_judgement_and_subjective_perception,2020.2.10,60.037286996650636,
1,0.9,training,1000,,,,,,0,14,14,14,,,,,,,,,,,,,171.5473882369988,None,f,0.6139940809989639,171.64733378700112,None,171.04721978399903,171.46412230900023,172.28064873900075,172.78086461099883,172.28064873900075,None,,,,,,12,001,exponential,gyrb,0.75-0.35,2021_May_19_1430,color_judgement_and_subjective_perception,2020.2.10,60.037286996650636,
3,0.9,training,1000,,,,,,0,15,15,15,,,,,,,,,,,,,173.38094186500166,None,k,0.5163465039986477,173.4809445009996,None,172.88077398400128,173.2975580759994,174.01412883800003,174.51437458800137,174.01412883800003,None,,,,,,12,001,exponential,gyrb,0.75-0.35,2021_May_19_1430,color_judgement_and_subjective_perception,2020.2.10,60.037286996650636,
1,0.9,training,1000,,,,,,0,16,16,16,,,,,,,,,,,,,175.11451777000184,None,d,0.6148427790030837,175.21449012499943,None,174.6144116739997,175.03142048899826,175.84861640300005,176.33233866799856,175.84861640300005,None,,,,,,12,001,exponential,gyrb,0.75-0.35,2021_May_19_1430,color_judgement_and_subjective_perception,2020.2.10,60.037286996650636,
0,0.9,training,1000,,,,,,0,17,17,17,,,,,,,,,,,,,176.93233686999884,None,d,0.7248848060007731,177.0324489179984,None,176.43222216800132,176.849148538,177.78225925399965,178.2825343910008,177.78225925399965,None,,,,,,12,001,exponential,gyrb,0.75-0.35,2021_May_19_1430,color_judgement_and_subjective_perception,2020.2.10,60.037286996650636,
2,0.9,training,1000,,,,,,0,18,18,18,,,,,,,,,,,,,178.88259766099873,None,j,0.49457665999943856,178.98268529599954,None,178.38249548000022,178.79936901199835,179.4991831039988,179.99940473899915,179.4991831039988,None,,,,,,12,001,exponential,gyrb,0.75-0.35,2021_May_19_1430,color_judgement_and_subjective_perception,2020.2.10,60.037286996650636,
0,0.9,training,1000,,,,,,0,19,19,19,,,,,,,,,,,,,180.5995660990011,None,d,0.593860193999717,180.69944956299878,None,180.09927644699928,180.51615819500148,181.31700087400168,181.81706788000156,181.31700087400168,None,,,,,,12,001,exponential,gyrb,0.75-0.35,2021_May_19_1430,color_judgement_and_subjective_perception,2020.2.10,60.037286996650636,
1,0.9,training,1000,,,,,,0,20,20,20,,,,,,,,,,,,,182.41725060599856,None,f,0.49622225100029027,182.51711191999857,None,181.91707240899996,182.33375588900162,183.03377846900185,183.53394430199842,183.03377846900185,None,,,,,,12,001,exponential,gyrb,0.75-0.35,2021_May_19_1430,color_judgement_and_subjective_perception,2020.2.10,60.037286996650636,
0,0.9,training,1000,,,,,,0,21,21,21,,,,,,,,,,,,,184.13406047600074,None,d,0.6752906270012318,184.2340233219984,None,183.63392841500172,184.05074871599936,184.93411863000074,185.43411905600078,184.93411863000074,None,,,,,,12,001,exponential,gyrb,0.75-0.35,2021_May_19_1430,color_judgement_and_subjective_perception,2020.2.10,60.037286996650636,
3,0.9,training,1000,,,,,,0,22,22,22,,,,,,,,,,,,,186.0254804319993,None,k,0.398611043998244,186.11877182700118,None,185.5341055179997,185.95089535399893,186.53529170899856,187.03541634700014,186.53529170899856,None,,,,,,12,001,exponential,gyrb,0.75-0.35,2021_May_19_1430,color_judgement_and_subjective_perception,2020.2.10,60.037286996650636,
0,0.9,training,1000,,,,,,0,23,23,23,,,,,,,,,,,,,187.6354428279992,None,d,0.589792437000142,187.73550078599874,None,187.1352646689993,187.55206083699886,188.35204965799858,188.85223247999966,188.35204965799858,None,,,,,,12,001,exponential,gyrb,0.75-0.35,2021_May_19_1430,color_judgement_and_subjective_perception,2020.2.10,60.037286996650636,
2,0.9,training,1000,,,,,,0,24,24,24,,,,,,,,,,,,,189.45227059199897,None,j,0.6526061959993967,189.5527499480013,None,188.95218038299936,189.3690494270013,190.23594619399955,190.73615965700083,190.23594619399955,None,,,,,,12,001,exponential,gyrb,0.75-0.35,2021_May_19_1430,color_judgement_and_subjective_perception,2020.2.10,60.037286996650636,
1,0.9,training,1000,,,,,,0,25,25,25,,,,,,,,,,,,,191.32040234500164,None,f,0.576920332001464,191.42044145000182,None,190.8361208919996,191.23709031199905,192.02028000200153,192.52052982000168,192.02028000200153,None,,,,,,12,001,exponential,gyrb,0.75-0.35,2021_May_19_1430,color_judgement_and_subjective_perception,2020.2.10,60.037286996650636,
0,0.9,training,1000,,,,,,0,26,26,26,,,,,,,,,,,,,193.1206623930011,None,d,0.5608218289999058,193.22046741699887,None,192.6204678440008,193.037297193001,193.80398196999886,194.3040925159985,193.80398196999886,None,,,,,,12,001,exponential,gyrb,0.75-0.35,2021_May_19_1430,color_judgement_and_subjective_perception,2020.2.10,60.037286996650636,
2,0.9,training,1000,,,,,,0,27,27,27,,,,,,,,,,,,,194.9042266760007,None,j,0.705105867000384,195.00425226800144,None,194.40410743900065,194.82089824099967,195.73761595700125,196.22198094199848,195.73761595700125,None,,,,,,12,001,exponential,gyrb,0.75-0.35,2021_May_19_1430,color_judgement_and_subjective_perception,2020.2.10,60.037286996650636,
1,0.9,training,1000,,,,,,0,28,28,28,,,,,,,,,,,,,196.82202897200114,None,f,0.6194599959999323,196.92192702600005,None,196.32191246000002,196.73855509499845,197.57194010500098,198.0723203410016,197.57194010500098,None,,,,,,12,001,exponential,gyrb,0.75-0.35,2021_May_19_1430,color_judgement_and_subjective_perception,2020.2.10,60.037286996650636,
3,0.9,training,1000,,,,,,0,29,29,29,,,,,,,,,,,,,198.67244127099912,None,k,0.4968454079971707,198.77251964199968,None,198.1721588520013,198.58898876199964,199.28911774600056,199.78895393900166,199.28911774600056,None,,,,,,12,001,exponential,gyrb,0.75-0.35,2021_May_19_1430,color_judgement_and_subjective_perception,2020.2.10,60.037286996650636,
2,0.9,training,1000,,,,,,0,30,30,30,,,,,,,,,,,,,200.38921808500163,None,j,0.7721817759993428,200.48922627999855,None,199.88907197500157,200.30585833499936,201.29011823600013,201.7902654770005,201.29011823600013,None,,,,,,12,001,exponential,gyrb,0.75-0.35,2021_May_19_1430,color_judgement_and_subjective_perception,2020.2.10,60.037286996650636,
1,0.9,training,1000,,,,,,0,31,31,31,,,,,,,,,,,,,202.39025609099917,None,f,0.43499346999669797,202.49037917999885,None,201.890293982,202.3069426789989,202.95696161199885,203.45728058199893,202.95696161199885,None,,,,,,12,001,exponential,gyrb,0.75-0.35,2021_May_19_1430,color_judgement_and_subjective_perception,2020.2.10,60.037286996650636,
3,0.9,training,1000,,,,,,0,32,32,32,,,,,,,,,,,,,204.05731234300038,None,k,0.5521481680007128,204.1572123879996,None,203.55725637299838,203.97399132899955,204.7404638980006,205.2407743520016,204.7404638980006,None,,,,,,12,001,exponential,gyrb,0.75-0.35,2021_May_19_1430,color_judgement_and_subjective_perception,2020.2.10,60.037286996650636,
0,0.9,training,1000,,,,,,0,33,33,33,,,,,,,,,,,,,205.84082826099984,None,d,0.6563652210024884,205.9409902970001,None,205.3406968490017,205.75754053000128,206.6249064449985,207.125044376,206.6249064449985,None,,,,,,12,001,exponential,gyrb,0.75-0.35,2021_May_19_1430,color_judgement_and_subjective_perception,2020.2.10,60.037286996650636,
2,0.9,training,1000,,,,,,0,34,34,34,,,,,,,,,,,,,207.7251101410002,None,j,0.4839662730009877,207.82532311699833,None,207.22488608999993,207.64204953399894,208.3418195129998,208.84225000999868,208.3418195129998,None,,,,,,12,001,exponential,gyrb,0.75-0.35,2021_May_19_1430,color_judgement_and_subjective_perception,2020.2.10,60.037286996650636,
1,0.9,training,1000,,,,,,0,35,35,35,,,,,,,,,,,,,209.4423078789987,None,f,0.8071986149989243,209.54216114600058,None,208.94217804000073,209.3588826189989,210.375427469,210.87562152100145,210.375427469,None,,,,,,12,001,exponential,gyrb,0.75-0.35,2021_May_19_1430,color_judgement_and_subjective_perception,2020.2.10,60.037286996650636,
3,0.9,training,1000,,,,,,0,36,36,36,,,,,,,,,,,,,211.4601680679989,None,k,0.7331354349989851,211.56020607900064,None,210.97577053200075,211.37655687000006,212.31016831799934,212.81023051599914,212.31016831799934,None,,,,,,12,001,exponential,gyrb,0.75-0.35,2021_May_19_1430,color_judgement_and_subjective_perception,2020.2.10,60.037286996650636,
2,0.9,training,1000,,,,,,0,37,37,37,,,,,,,,,,,,,213.4104268939991,None,j,0.35082252900247113,213.5105229410001,None,212.91017573600038,213.32703664400105,213.89353879600094,214.3938926189985,213.89353879600094,None,,,,,,12,001,exponential,gyrb,0.75-0.35,2021_May_19_1430,color_judgement_and_subjective_perception,2020.2.10,60.037286996650636,
1,0.9,training,1000,,,,,,0,38,38,38,,,,,,,,,,,,,214.99384301800092,None,f,0.6713141830005043,215.09402712299925,None,214.49381544100106,214.91049732100146,215.79389703799825,216.27837762199852,215.79389703799825,None,,,,,,12,001,exponential,gyrb,0.75-0.35,2021_May_19_1430,color_judgement_and_subjective_perception,2020.2.10,60.037286996650636,
0,0.9,training,1000,,,,,,0,39,39,39,,,,,,,,,,,,,216.87831699899834,None,d,0.43502934299976914,216.97837967300075,None,216.3782713260007,216.7949342469983,217.44479755000066,217.94498675700015,217.44479755000066,None,,,,,,12,001,exponential,gyrb,0.75-0.35,2021_May_19_1430,color_judgement_and_subjective_perception,2020.2.10,60.037286996650636,
1,0.9,training,1000,,,,,,0,40,40,40,,,,,,,,,,,,,218.5453700379985,None,f,0.6399465569993481,218.6454261660001,None,218.04511126500074,218.46188263599834,219.3119190239995,219.8121102719997,219.3119190239995,None,,,,,,12,001,exponential,gyrb,0.75-0.35,2021_May_19_1430,color_judgement_and_subjective_perception,2020.2.10,60.037286996650636,
3,0.9,training,1000,,,,,,0,41,41,41,,,,,,,,,,,,,220.4121915249998,None,k,0.5091324229979364,220.5122265960017,None,219.9120916259999,220.3288171819986,221.0392160800002,221.5299463219999,221.0392160800002,None,,,,,,12,001,exponential,gyrb,0.75-0.35,2021_May_19_1430,color_judgement_and_subjective_perception,2020.2.10,60.037286996650636,
0,0.9,training,1000,,,,,,0,42,42,42,,,,,,,,,,,,,222.12989843299874,None,d,0.6874226549989544,222.22994959900097,None,221.62962089600114,222.04664406400116,222.94654658099898,223.44706034000046,222.94654658099898,None,,,,,,12,001,exponential,gyrb,0.75-0.35,2021_May_19_1430,color_judgement_and_subjective_perception,2020.2.10,60.037286996650636,
3,0.9,training,1000,,,,,,0,43,43,43,,,,,,,,,,,,,224.04711540000062,None,k,0.4744158460016479,224.1469350869993,None,223.54687474800085,223.96377459200085,224.64671580900176,225.14710740599912,224.64671580900176,None,,,,,,12,001,exponential,gyrb,0.75-0.35,2021_May_19_1430,color_judgement_and_subjective_perception,2020.2.10,60.037286996650636,
0,0.9,training,1000,,,,,,0,44,44,44,,,,,,,,,,,,,225.7472035940009,None,None,-1,225.84719972099992,None,225.24706547900132,225.66391196699988,226.74816826499955,227.2481580599997,226.74816826499955,None,,,,,,12,001,exponential,gyrb,0.75-0.35,2021_May_19_1430,color_judgement_and_subjective_perception,2020.2.10,60.037286996650636,
2,0.9,training,1000,,,,,,0,45,45,45,,,,,,,,,,,,,227.84826655600045,None,j,0.5931363650015555,227.94826051500058,None,227.3481265800001,227.7650188000007,228.56502215799992,229.06521431000147,228.56502215799992,None,,,,,,12,001,exponential,gyrb,0.75-0.35,2021_May_19_1430,color_judgement_and_subjective_perception,2020.2.10,60.037286996650636,
0,0.9,training,1000,,,,,,0,46,46,46,,,,,,,,,,,,,229.66521337200174,None,d,0.8881069259987271,229.76521911300006,None,229.1651340790013,229.5819191800001,230.68186978299855,231.16640018600083,230.68186978299855,None,,,,,,12,001,exponential,gyrb,0.75-0.35,2021_May_19_1430,color_judgement_and_subjective_perception,2020.2.10,60.037286996650636,
1,0.9,training,1000,,,,,,0,47,47,47,,,,,,,,,,,,,231.76638006299981,None,f,0.6590713860023243,231.8663200789997,None,231.26627993299917,231.68304651599829,232.54951445500046,233.05007839099926,232.54951445500046,None,,,,,,12,001,exponential,gyrb,0.75-0.35,2021_May_19_1430,color_judgement_and_subjective_perception,2020.2.10,60.037286996650636,
1,0.9,training,1000,,,,,,0,48,48,48,,,,,,,,,,,,,233.65020222699968,None,f,0.5031259280003724,233.75022352100132,None,233.14998559200103,233.56683936300033,234.28322711299916,234.78350683700046,234.28322711299916,None,,,,,,12,001,exponential,gyrb,0.75-0.35,2021_May_19_1430,color_judgement_and_subjective_perception,2020.2.10,60.037286996650636,
2,0.9,training,1000,,,,,,0,49,49,49,,,,,,,,,,,,,235.38359541200043,None,j,0.457655482001428,235.48375270500037,None,234.88355239000157,235.30034891000105,235.966892946999,236.451344385001,235.966892946999,None,,,,,,12,001,exponential,gyrb,0.75-0.35,2021_May_19_1430,color_judgement_and_subjective_perception,2020.2.10,60.037286996650636,
1,0.9,training,1000,,,,,,0,50,50,50,,,,,,,,,,,,,237.05137042700153,None,f,0.5900820450005995,237.15128999700028,None,236.55136872599905,236.9678892180018,237.76807790900057,238.26838753999982,237.76807790900057,None,,,,,,12,001,exponential,gyrb,0.75-0.35,2021_May_19_1430,color_judgement_and_subjective_perception,2020.2.10,60.037286996650636,
2,0.9,training,1000,,,,,,0,51,51,51,,,,,,,,,,,,,238.86839998700088,None,j,0.6688761129989871,238.9685022449994,None,238.3683178729989,238.78501230099937,239.6682530700018,240.1685004380015,239.6682530700018,None,,,,,,12,001,exponential,gyrb,0.75-0.35,2021_May_19_1430,color_judgement_and_subjective_perception,2020.2.10,60.037286996650636,
1,0.9,training,1000,,,,,,0,52,52,52,,,,,,,,,,,,,240.7686912479985,None,f,0.544672926000203,240.86865694099833,None,240.2684257869987,240.68523721900056,241.4360946529996,241.9362643759996,241.4360946529996,None,,,,,,12,001,exponential,gyrb,0.75-0.35,2021_May_19_1430,color_judgement_and_subjective_perception,2020.2.10,60.037286996650636,
0,0.9,training,1000,,,,,,0,53,53,53,,,,,,,,,,,,,242.5363902479985,None,k,0.4970643980013847,242.63632527899972,None,242.03635826499885,242.45302116899984,243.15306609400068,243.65317377799875,243.15306609400068,None,,,,,,12,001,exponential,gyrb,0.75-0.35,2021_May_19_1430,color_judgement_and_subjective_perception,2020.2.10,60.037286996650636,
2,0.9,training,1000,,,,,,0,54,54,54,,,,,,,,,,,,,244.2532517590007,None,j,0.6439914610018604,244.35329147599987,None,243.75323751399992,244.17002469400177,245.01975650700115,245.52020949199868,245.01975650700115,None,,,,,,12,001,exponential,gyrb,0.75-0.35,2021_May_19_1430,color_judgement_and_subjective_perception,2020.2.10,60.037286996650636,
0,0.9,training,1000,,,,,,0,55,55,55,,,,,,,,,,,,,246.1044582100003,None,d,0.3528061600009096,246.204552444,None,245.62015386599887,246.03583019299913,246.5876266560008,247.08786228299869,246.5876266560008,None,,,,,,12,001,exponential,gyrb,0.75-0.35,2021_May_19_1430,color_judgement_and_subjective_perception,2020.2.10,60.037286996650636,
3,0.9,training,1000,,,,,,0,56,56,56,,,,,,,,,,,,,247.68792208200102,None,k,0.5213871499981906,247.78791703599927,None,247.1878845220017,247.6045604409992,248.3379434519993,248.83826557499924,248.3379434519993,None,,,,,,12,001,exponential,gyrb,0.75-0.35,2021_May_19_1430,color_judgement_and_subjective_perception,2020.2.10,60.037286996650636,
0,0.9,training,1000,,,,,,0,57,57,57,,,,,,,,,,,,,249.4381940480016,None,d,0.36330205599733745,249.53808846000175,None,248.9381816339992,249.3548423860011,249.92141840000113,250.42176499700145,249.92141840000113,None,,,,,,12,001,exponential,gyrb,0.75-0.35,2021_May_19_1430,color_judgement_and_subjective_perception,2020.2.10,60.037286996650636,
2,0.9,training,1000,,,,,,0,58,58,58,,,,,,,,,,,,,251.02175915200132,None,j,0.5632858169992687,251.1060796620004,None,250.5216841270012,250.9383792890003,251.6892716959992,252.18941597199955,251.6892716959992,None,,,,,,12,001,exponential,gyrb,0.75-0.35,2021_May_19_1430,color_judgement_and_subjective_perception,2020.2.10,60.037286996650636,
2,0.9,training,1000,,,,,,0,59,59,59,,,,,,,,,,,,,252.7895645610006,None,j,0.6117393009990337,252.88962217800145,None,252.28935359200113,252.70624015900103,253.52299708400096,254.023238537,253.52299708400096,None,,,,,,12,001,exponential,gyrb,0.75-0.35,2021_May_19_1430,color_judgement_and_subjective_perception,2020.2.10,60.037286996650636,
2,0.9,training,1000,,,,,,0,60,60,60,,,,,,,,,,,,,254.62318865400084,None,j,0.5620772879992728,254.72321976700186,None,254.1231560490014,254.5398438000011,255.30659430200103,255.80668848999994,255.30659430200103,None,,,,,,12,001,exponential,gyrb,0.75-0.35,2021_May_19_1430,color_judgement_and_subjective_perception,2020.2.10,60.037286996650636,
0,0.9,training,1000,,,,,,0,61,61,61,,,,,,,,,,,,,256.3909358339988,None,d,0.7145307190003223,256.4908366870004,None,255.9066657330004,256.3075825529995,257.22423369899843,257.7244021939987,257.22423369899843,None,,,,,,12,001,exponential,gyrb,0.75-0.35,2021_May_19_1430,color_judgement_and_subjective_perception,2020.2.10,60.037286996650636,
1,0.9,training,1000,,,,,,0,62,62,62,,,,,,,,,,,,,258.3245209179986,None,f,0.4606605919980211,258.4246333529991,None,257.82443729700026,258.2413043999986,258.9078894640006,259.4081051079993,258.9078894640006,None,,,,,,12,001,exponential,gyrb,0.75-0.35,2021_May_19_1430,color_judgement_and_subjective_perception,2020.2.10,60.037286996650636,
3,0.9,training,1000,,,,,,0,63,63,63,,,,,,,,,,,,,260.00815674800106,None,k,0.4493941700020514,260.1079977289992,None,259.50792747599917,259.92475860099876,260.57475966900165,261.0597521939999,260.57475966900165,None,,,,,,12,001,exponential,gyrb,0.75-0.35,2021_May_19_1430,color_judgement_and_subjective_perception,2020.2.10,60.037286996650636,
3,0.9,training,1000,,,,,,0,64,64,64,,,,,,,,,,,,,261.6592715129991,None,k,0.6940106080000987,261.75926182499825,None,261.15910869399886,261.5758402579995,262.4759362350014,262.975905203999,262.4759362350014,None,,,,,,12,001,exponential,gyrb,0.75-0.35,2021_May_19_1430,color_judgement_and_subjective_perception,2020.2.10,60.037286996650636,
1,0.9,training,1000,,,,,,0,65,65,65,,,,,,,,,,,,,263.5762765619984,None,None,-1,263.67629468000086,None,263.07609714299906,263.49293820299863,264.59292297999855,265.09303557100066,264.59292297999855,None,,,,,,12,001,exponential,gyrb,0.75-0.35,2021_May_19_1430,color_judgement_and_subjective_perception,2020.2.10,60.037286996650636,
3,0.9,training,1000,,,,,,0,66,66,66,,,,,,,,,,,,,265.69312893499955,None,k,0.5561640819978493,265.79320806800024,None,265.19294670900126,265.6098919549986,266.3772587499989,266.87760141800027,266.3772587499989,None,,,,,,12,001,exponential,gyrb,0.75-0.35,2021_May_19_1430,color_judgement_and_subjective_perception,2020.2.10,60.037286996650636,
3,0.9,training,1000,,,,,,0,67,67,67,,,,,,,,,,,,,267.4775555419983,None,k,0.7238318359995901,267.5775777909985,None,266.9774546689987,267.3941329679983,268.3276414710017,268.82796980700004,268.3276414710017,None,,,,,,12,001,exponential,gyrb,0.75-0.35,2021_May_19_1430,color_judgement_and_subjective_perception,2020.2.10,60.037286996650636,
0,0.9,training,1000,,,,,,0,68,68,68,,,,,,,,,,,,,269.42796081599954,None,d,0.5093485639990831,269.5280554769997,None,268.9279432529984,269.3444932079983,270.06133260700153,270.5613739520013,270.06133260700153,None,,,,,,12,001,exponential,gyrb,0.75-0.35,2021_May_19_1430,color_judgement_and_subjective_perception,2020.2.10,60.037286996650636,
0,0.9,training,1000,,,,,,0,69,69,69,,,,,,,,,,,,,271.14567629299927,None,d,0.5036354940020829,271.2457193830014,None,270.66135943799964,271.0626435710001,271.7790644919987,272.279095337999,271.7790644919987,None,,,,,,12,001,exponential,gyrb,0.75-0.35,2021_May_19_1430,color_judgement_and_subjective_perception,2020.2.10,60.037286996650636,
0,0.9,training,1000,,,,,,0,70,70,70,,,,,,,,,,,,,272.8791641759999,None,d,0.4181021350013907,272.97926283500055,None,272.37893647799865,272.7957940060005,273.42911021300097,273.92953538299844,273.42911021300097,None,,,,,,12,001,exponential,gyrb,0.75-0.35,2021_May_19_1430,color_judgement_and_subjective_perception,2020.2.10,60.037286996650636,
1,0.9,training,1000,,,,,,0,71,71,71,,,,,,,,,,,,,274.5293621960009,None,f,0.6239530279999599,274.6294348599986,None,274.0294489910011,274.4461851060005,275.2794435069991,275.7796569739985,275.2794435069991,None,,,,,,12,001,exponential,gyrb,0.75-0.35,2021_May_19_1430,color_judgement_and_subjective_perception,2020.2.10,60.037286996650636,
1,0.9,training,1000,,,,,,0,72,72,72,,,,,,,,,,,,,276.36384709900085,None,f,0.5894777129979047,276.46387928900003,None,275.8796969219984,276.2805878729996,277.08051487099874,277.5806589540007,277.08051487099874,None,,,,,,12,001,exponential,gyrb,0.75-0.35,2021_May_19_1430,color_judgement_and_subjective_perception,2020.2.10,60.037286996650636,
2,0.9,training,1000,,,,,,0,73,73,73,,,,,,,,,,,,,278.18090421799934,None,j,0.5164402690024872,278.2809525880002,None,277.68070565699963,278.0976046020005,278.81422928699976,279.3143790219983,278.81422928699976,None,,,,,,12,001,exponential,gyrb,0.75-0.35,2021_May_19_1430,color_judgement_and_subjective_perception,2020.2.10,60.037286996650636,
1,0.9,training,1000,,,,,,0,74,74,74,,,,,,,,,,,,,279.9144438020012,None,f,0.7028838929982157,280.0144885369991,None,279.4142940899983,279.8310408360012,280.7476832739994,281.23222396300116,280.7476832739994,None,,,,,,12,001,exponential,gyrb,0.75-0.35,2021_May_19_1430,color_judgement_and_subjective_perception,2020.2.10,60.037286996650636,
3,0.9,training,1000,,,,,,0,75,75,75,,,,,,,,,,,,,281.83217211599913,None,k,0.48918114499974763,281.93217924499913,None,281.3321317510017,281.7487800449999,282.44882973600033,282.94907520799825,282.44882973600033,None,,,,,,12,001,exponential,gyrb,0.75-0.35,2021_May_19_1430,color_judgement_and_subjective_perception,2020.2.10,60.037286996650636,
0,0.9,training,1000,,,,,,0,76,76,76,,,,,,,,,,,,,283.54927824699917,None,None,-1,283.64922028300134,None,283.0490858539997,283.4658229790002,284.56573582800047,285.0659940990008,284.56573582800047,None,,,,,,12,001,exponential,gyrb,0.75-0.35,2021_May_19_1430,color_judgement_and_subjective_perception,2020.2.10,60.037286996650636,
0,0.9,training,1000,,,,,,0,77,77,77,,,,,,,,,,,,,285.66615108599945,None,d,0.3511679590010317,285.76615158999994,None,285.16592466699876,285.58269697799915,286.15018210999915,286.65047809599855,286.15018210999915,None,,,,,,12,001,exponential,gyrb,0.75-0.35,2021_May_19_1430,color_judgement_and_subjective_perception,2020.2.10,60.037286996650636,
2,0.9,training,1000,,,,,,0,78,78,78,,,,,,,,,,,,,287.2505116309985,None,j,0.7828390139984549,287.3505317570016,None,286.75036924400047,287.1670545179986,288.15056840300167,288.6509189940007,288.15056840300167,None,,,,,,12,001,exponential,gyrb,0.75-0.35,2021_May_19_1430,color_judgement_and_subjective_perception,2020.2.10,60.037286996650636,
3,0.9,training,1000,,,,,,0,79,79,79,,,,,,,,,,,,,289.25068502499926,None,k,0.5345252839979366,289.35083649900116,None,288.75077249600145,289.167562573999,289.9173965629998,290.4176733540007,289.9173965629998,None,,,,,,12,001,exponential,gyrb,0.75-0.35,2021_May_19_1430,color_judgement_and_subjective_perception,2020.2.10,60.037286996650636,
1,0.9,training,1000,,,,,,0,80,80,80,,,,,,,,,,,,,291.01775817700036,None,f,0.5593751929991413,291.1019847409989,None,290.51766683499955,290.93455030399855,291.6852072690017,292.18536604199835,291.6852072690017,None,,,,,,12,001,exponential,gyrb,0.75-0.35,2021_May_19_1430,color_judgement_and_subjective_perception,2020.2.10,60.037286996650636,
2,0.9,training,1000,,,,,,0,81,81,81,,,,,,,,,,,,,292.7855452719996,None,None,-1,292.8855130459997,None,292.28533826499915,292.7021454179994,293.802341472001,294.30242028700013,293.802341472001,None,,,,,,12,001,exponential,gyrb,0.75-0.35,2021_May_19_1430,color_judgement_and_subjective_perception,2020.2.10,60.037286996650636,
2,0.9,training,1000,,,,,,0,82,82,82,,,,,,,,,,,,,294.90247721099877,None,j,0.45878039300077944,295.00256620000073,None,294.4023533770014,294.81925208900066,295.4858357060002,295.9860613689998,295.4858357060002,None,,,,,,12,001,exponential,gyrb,0.75-0.35,2021_May_19_1430,color_judgement_and_subjective_perception,2020.2.10,60.037286996650636,
0,0.9,training,1000,,,,,,0,83,83,83,,,,,,,,,,,,,296.5702905879989,None,d,0.5589926290012954,296.67036357599864,None,296.0719111649996,296.4869039769983,297.2535643580013,297.75370325100084,297.2535643580013,None,,,,,,12,001,exponential,gyrb,0.75-0.35,2021_May_19_1430,color_judgement_and_subjective_perception,2020.2.10,60.037286996650636,
0,0.9,training,1000,,,,,,0,84,84,84,,,,,,,,,,,,,298.353792154001,None,f,0.4713546770035464,298.45401712700186,None,297.85381390800103,298.2705642260007,298.95395526799985,299.4539967339988,298.95395526799985,None,,,,,,12,001,exponential,gyrb,0.75-0.35,2021_May_19_1430,color_judgement_and_subjective_perception,2020.2.10,60.037286996650636,
3,0.9,training,1000,,,,,,0,85,85,85,,,,,,,,,,,,,300.0538731400011,None,k,0.5472833010026079,300.15408494700023,None,299.5539819270016,299.9707137609985,300.7207846759993,301.20516968000084,300.7207846759993,None,,,,,,12,001,exponential,gyrb,0.75-0.35,2021_May_19_1430,color_judgement_and_subjective_perception,2020.2.10,60.037286996650636,
3,0.9,training,1000,,,,,,0,86,86,86,,,,,,,,,,,,,301.80492914099887,None,k,0.41210792899801163,301.9051855450016,None,301.30508517699855,301.72181281899975,302.3385183319988,302.83865859100115,302.3385183319988,None,,,,,,12,001,exponential,gyrb,0.75-0.35,2021_May_19_1430,color_judgement_and_subjective_perception,2020.2.10,60.037286996650636,
3,0.9,training,1000,,,,,,0,87,87,87,,,,,,,,,,,,,303.43877282700123,None,k,0.3544854200008558,303.53894169200066,None,302.93863705200056,303.35565106099966,303.92209862099844,304.42237191000095,303.92209862099844,None,,,,,,12,001,exponential,gyrb,0.75-0.35,2021_May_19_1430,color_judgement_and_subjective_perception,2020.2.10,60.037286996650636,
3,0.9,training,1000,,,,,,0,88,88,88,,,,,,,,,,,,,305.0222787450002,None,k,0.25097031900077127,305.1224021220005,None,304.5223258340011,304.9389919310015,305.40545986800134,305.9058464640002,305.40545986800134,None,,,,,,12,001,exponential,gyrb,0.75-0.35,2021_May_19_1430,color_judgement_and_subjective_perception,2020.2.10,60.037286996650636,
0,0.9,training,1000,,,,,,0,89,89,89,,,,,,,,,,,,,306.49015064299965,None,d,0.511299517002044,306.5900000190013,None,306.0057457820003,306.4068774570005,307.1232525660016,307.6235199629991,307.1232525660016,None,,,,,,12,001,exponential,gyrb,0.75-0.35,2021_May_19_1430,color_judgement_and_subjective_perception,2020.2.10,60.037286996650636,
1,0.9,training,1000,,,,,,0,90,90,90,,,,,,,,,,,,,308.2237868960001,None,f,0.44168357599846786,308.323687909,None,307.7235406610016,308.14037836100033,308.790549835001,309.2905658689997,308.790549835001,None,,,,,,12,001,exponential,gyrb,0.75-0.35,2021_May_19_1430,color_judgement_and_subjective_perception,2020.2.10,60.037286996650636,
1,0.9,training,1000,,,,,,0,91,91,91,,,,,,,,,,,,,309.8905575589997,None,f,0.5748232910009392,309.9905502520014,None,309.3905035429998,309.80724802799887,310.59069248000014,311.0756458959986,310.59069248000014,None,,,,,,12,001,exponential,gyrb,0.75-0.35,2021_May_19_1430,color_judgement_and_subjective_perception,2020.2.10,60.037286996650636,
3,0.9,training,1000,,,,,,0,92,92,92,,,,,,,,,,,,,311.675127511,None,k,0.4061729710010695,311.77519911499985,None,311.17510016400047,311.591748371,312.2082817769988,312.70845338100116,312.2082817769988,None,,,,,,12,001,exponential,gyrb,0.75-0.35,2021_May_19_1430,color_judgement_and_subjective_perception,2020.2.10,60.037286996650636,
2,0.9,training,1000,,,,,,0,93,93,93,,,,,,,,,,,,,313.3086853060013,None,j,0.38868119600010687,313.40872672800106,None,312.8084559400013,313.22525818400027,313.82527954300167,314.32546176899996,313.82527954300167,None,,,,,,12,001,exponential,gyrb,0.75-0.35,2021_May_19_1430,color_judgement_and_subjective_perception,2020.2.10,60.037286996650636,
1,0.9,training,1000,,,,,,0,94,94,94,,,,,,,,,,,,,314.92536500200004,None,d,0.44384364199868287,315.02548317900073,None,314.4253620410018,314.8422187520009,315.4920188190008,315.9923943460017,315.4920188190008,None,,,,,,12,001,exponential,gyrb,0.75-0.35,2021_May_19_1430,color_judgement_and_subjective_perception,2020.2.10,60.037286996650636,
2,0.9,training,1000,,,,,,0,95,95,95,,,,,,,,,,,,,316.57654438900136,None,j,0.6968898800005263,316.6764804000013,None,316.07857390500067,316.4933033240013,317.3931467959992,317.89343133299917,317.3931467959992,None,,,,,,12,001,exponential,gyrb,0.75-0.35,2021_May_19_1430,color_judgement_and_subjective_perception,2020.2.10,60.037286996650636,
0,0.75,testing,1000,1,,,,,,,,,0,0,0,0,0,0,0,0,,,,,329.29684188900137,None,None,-1,329.3967369029997,None,328.80367356699935,329.2133685000008,330.31326923899906,330.8138353639988,330.31326923899906,None,0,40,0,,,12,001,exponential,gyrb,0.75-0.35,2021_May_19_1430,color_judgement_and_subjective_perception,2020.2.10,60.037286996650636,
2,0.75,testing,1000,1,,,,,,,,,0,0,0,0,0,1,1,2,,,,,331.39807440799996,None,k,0.4270830109999224,331.4982038870003,None,330.9135026750009,331.3146056080004,331.947981502999,332.4480979990003,331.947981502999,None,30,10,0,,,12,001,exponential,gyrb,0.75-0.35,2021_May_19_1430,color_judgement_and_subjective_perception,2020.2.10,60.037286996650636,
3,0.75,testing,1000,1,,,,,,,,,0,0,0,0,0,2,2,3,,,,,333.0483216290013,None,None,-1,333.14813633800077,None,332.54805884300004,332.96485064900116,334.06498516699867,334.5649574700001,334.06498516699867,None,0,0,52,,,12,001,exponential,gyrb,0.75-0.35,2021_May_19_1430,color_judgement_and_subjective_perception,2020.2.10,60.037286996650636,
1,0.75,testing,1000,1,,,,,,,,,0,0,0,0,0,3,3,1,,,,,335.1651132029983,None,None,-1,335.2651574470001,None,334.66497372600134,335.0817992400007,336.1662068379992,336.66626105400064,336.1662068379992,None,40,40,0,,,12,001,exponential,gyrb,0.75-0.35,2021_May_19_1430,color_judgement_and_subjective_perception,2020.2.10,60.037286996650636,
3,0.75,testing,1000,1,,,,,,,,,0,0,0,0,1,0,4,3,,,,,337.26628398699904,None,k,0.6470306789997267,337.36633641500157,None,336.7663709740009,337.182992394999,338.0328819419992,338.5334086090006,338.0328819419992,None,0,0,55,,,12,001,exponential,gyrb,0.75-0.35,2021_May_19_1430,color_judgement_and_subjective_perception,2020.2.10,60.037286996650636,
0,0.75,testing,1000,1,,,,,,,,,0,0,0,0,1,1,5,0,,,,,339.1334331370017,None,j,0.7559052729993709,339.2334577690017,None,338.63326772000073,339.0499566869985,340.01651997299996,340.51673724099965,340.01651997299996,None,0,46,0,,,12,001,exponential,gyrb,0.75-0.35,2021_May_19_1430,color_judgement_and_subjective_perception,2020.2.10,60.037286996650636,
2,0.75,testing,1000,1,,,,,,,,,0,0,0,0,1,2,6,2,,,,,341.10112433000177,None,k,0.6681260160003148,341.20122031400024,None,340.61683469999844,341.0336216959986,341.90100681200056,342.4011830820018,341.90100681200056,None,36,12,0,,,12,001,exponential,gyrb,0.75-0.35,2021_May_19_1430,color_judgement_and_subjective_perception,2020.2.10,60.037286996650636,
1,0.75,testing,1000,1,,,,,,,,,0,0,0,0,1,3,7,1,,,,,343.00151722900046,None,j,0.5679916240005696,343.1013684719983,None,342.50107857200055,342.91788660399834,343.70141278200026,344.2016875679983,343.70141278200026,None,45,45,0,,,12,001,exponential,gyrb,0.75-0.35,2021_May_19_1430,color_judgement_and_subjective_perception,2020.2.10,60.037286996650636,
2,0.75,testing,1000,1,,,,,,,,,0,0,0,0,2,0,8,2,,,,,344.80168497699924,None,None,-1,344.9017245299983,None,344.30144821200156,344.71840415800034,345.8184304290007,346.30274188100157,345.8184304290007,None,39,13,0,,,12,001,exponential,gyrb,0.75-0.35,2021_May_19_1430,color_judgement_and_subjective_perception,2020.2.10,60.037286996650636,
0,0.75,testing,1000,1,,,,,,,,,0,0,0,0,2,1,9,0,,,,,346.90287884200006,None,d,0.26657957100178464,347.0028263589993,None,346.4027055059996,346.81957148999936,347.2860542829985,347.7861972719984,347.2860542829985,None,0,51,0,,,12,001,exponential,gyrb,0.75-0.35,2021_May_19_1430,color_judgement_and_subjective_perception,2020.2.10,60.037286996650636,
3,0.75,testing,1000,1,,,,,,,,,0,0,0,0,2,2,10,3,,,,,348.3864770789987,None,None,-1,348.48647212300057,None,347.8862057139995,348.30300873099986,349.403073548001,349.9031344089999,349.403073548001,None,0,0,62,,,12,001,exponential,gyrb,0.75-0.35,2021_May_19_1430,color_judgement_and_subjective_perception,2020.2.10,60.037286996650636,
1,0.75,testing,1000,1,,,,,,,,,0,0,0,0,2,3,11,1,,,,,350.50336931900165,None,j,0.6899585419996583,350.60341040300045,None,350.00310873499984,350.42000242200083,351.3208245200003,351.8210143239994,351.3208245200003,None,50,50,0,,,12,001,exponential,gyrb,0.75-0.35,2021_May_19_1430,color_judgement_and_subjective_perception,2020.2.10,60.037286996650636,
3,0.75,testing,1000,1,,,,,,,,,0,0,0,0,3,0,12,3,,,,,352.42096306500025,None,k,0.8441909370012581,352.52109455200116,None,351.9210016649995,352.3377812969993,353.3877144520011,353.8878714249986,353.3877144520011,None,0,0,65,,,12,001,exponential,gyrb,0.75-0.35,2021_May_19_1430,color_judgement_and_subjective_perception,2020.2.10,60.037286996650636,
1,0.75,testing,1000,1,,,,,,,,,0,0,0,0,3,1,13,1,,,,,354.48809221800184,None,d,0.8813053999983822,354.58808213700104,None,353.9879880459994,354.40473617099997,355.4880693699997,355.9883458389995,355.4880693699997,None,53,53,0,,,12,001,exponential,gyrb,0.75-0.35,2021_May_19_1430,color_judgement_and_subjective_perception,2020.2.10,60.037286996650636,
2,0.75,testing,1000,1,,,,,,,,,0,0,0,0,3,2,14,2,,,,,356.5726054459992,None,None,-1,356.67247143400164,None,356.08107348400154,356.48930615599966,357.5892081480015,358.089553288999,357.5892081480015,None,46,15,0,,,12,001,exponential,gyrb,0.75-0.35,2021_May_19_1430,color_judgement_and_subjective_perception,2020.2.10,60.037286996650636,
0,0.75,testing,1000,1,,,,,,,,,0,0,0,0,3,3,15,0,,,,,358.68964069199865,None,d,0.6957036509993486,358.78966166900136,None,358.18945770700157,358.6063621530011,359.5062194589991,360.0064075629998,359.5062194589991,None,0,58,0,,,12,001,exponential,gyrb,0.75-0.35,2021_May_19_1430,color_judgement_and_subjective_perception,2020.2.10,60.037286996650636,
0,0.75,testing,1000,1,,,,,,,,,0,0,0,0,4,0,16,0,,,,,360.6065840170013,None,d,0.5548044159986603,360.70656869400045,None,360.10640281900123,360.5233703349986,361.2907300609986,361.79067302399926,361.2907300609986,None,0,60,0,,,12,001,exponential,gyrb,0.75-0.35,2021_May_19_1430,color_judgement_and_subjective_perception,2020.2.10,60.037286996650636,
2,0.75,testing,1000,1,,,,,,,,,0,0,0,0,4,1,17,2,,,,,362.3908961800007,None,j,0.6585207290008839,362.49086759499914,None,361.89073816699965,362.30759968799975,363.1742307759996,363.6745262939985,363.1742307759996,None,50,17,0,,,12,001,exponential,gyrb,0.75-0.35,2021_May_19_1430,color_judgement_and_subjective_perception,2020.2.10,60.037286996650636,
1,0.75,testing,1000,1,,,,,,,,,0,0,0,0,4,2,18,1,,,,,364.2746129219995,None,d,0.8628682330017909,364.37451965999935,None,363.7743873319996,364.19120544199905,365.257894082999,365.75810831499984,365.257894082999,None,59,59,0,,,12,001,exponential,gyrb,0.75-0.35,2021_May_19_1430,color_judgement_and_subjective_perception,2020.2.10,60.037286996650636,
3,0.75,testing,1000,1,,,,,,,,,0,0,0,0,4,3,19,3,,,,,366.3423191440015,None,k,0.4188728599983733,366.442472783001,None,365.85804788099995,366.2590236169999,366.8921312780003,367.3924919150013,366.8921312780003,None,0,0,73,,,12,001,exponential,gyrb,0.75-0.35,2021_May_19_1430,color_judgement_and_subjective_perception,2020.2.10,60.037286996650636,
3,0.75,testing,1000,1,,,,,,,,,0,0,0,0,5,0,20,3,,,,,367.9926597449994,None,k,0.7927278200004366,368.0926297879996,None,367.49226110699965,367.90924118199837,368.9093294279992,369.4094629179999,368.9093294279992,None,0,0,75,,,12,001,exponential,gyrb,0.75-0.35,2021_May_19_1430,color_judgement_and_subjective_perception,2020.2.10,60.037286996650636,
2,0.75,testing,1000,1,,,,,,,,,0,0,0,0,5,1,21,2,,,,,370.00962377199903,None,j,0.7677666290001071,370.10960383400015,None,369.50952950600185,369.9262434320008,370.9096513580007,371.39389519999895,370.9096513580007,None,53,18,0,,,12,001,exponential,gyrb,0.75-0.35,2021_May_19_1430,color_judgement_and_subjective_perception,2020.2.10,60.037286996650636,
0,0.75,testing,1000,1,,,,,,,,,0,0,0,0,5,2,22,0,,,,,371.99403998699927,None,d,0.623415734997252,372.09395925100034,None,371.49391220599864,371.9105771229988,372.74395206199915,373.24440873300045,372.74395206199915,None,0,63,0,,,12,001,exponential,gyrb,0.75-0.35,2021_May_19_1430,color_judgement_and_subjective_perception,2020.2.10,60.037286996650636,
1,0.75,testing,1000,1,,,,,,,,,0,0,0,0,5,3,23,1,,,,,373.8443450470004,None,d,0.5810484499997983,373.9443448359998,None,373.3442973249985,373.7611249440015,374.54432446699866,375.04441258099905,374.54432446699866,None,59,59,0,,,12,001,exponential,gyrb,0.75-0.35,2021_May_19_1430,color_judgement_and_subjective_perception,2020.2.10,60.037286996650636,
2,0.75,testing,1000,1,,,,,,,,,0,0,0,0,6,0,24,2,,,,,375.6444807449989,None,j,0.7008360029976757,375.74455186200066,None,375.14441162799994,375.5612033590005,376.462147410999,376.96220404799897,376.462147410999,None,53,18,0,,,12,001,exponential,gyrb,0.75-0.35,2021_May_19_1430,color_judgement_and_subjective_perception,2020.2.10,60.037286996650636,
0,0.75,testing,1000,1,,,,,,,,,0,0,0,0,6,1,25,0,,,,,377.56240438500026,None,d,0.8469552820024546,377.6624135999991,None,377.0620693029996,377.47893933399973,378.5291496179998,379.0293617850002,378.5291496179998,None,0,63,0,,,12,001,exponential,gyrb,0.75-0.35,2021_May_19_1430,color_judgement_and_subjective_perception,2020.2.10,60.037286996650636,
3,0.75,testing,1000,1,,,,,,,,,0,0,0,0,6,2,26,3,,,,,379.62939949200154,None,k,0.4280252630014729,379.7292543170006,None,379.12915040400185,379.54600722599935,380.1793783440007,380.67955622999943,380.1793783440007,None,0,0,74,,,12,001,exponential,gyrb,0.75-0.35,2021_May_19_1430,color_judgement_and_subjective_perception,2020.2.10,60.037286996650636,
1,0.75,testing,1000,1,,,,,,,,,0,0,0,0,6,3,27,1,,,,,381.26383607000025,None,f,0.8657719650000217,381.36360357399826,None,380.77949564699884,381.18051179900067,382.24707806600054,382.74742713700107,382.24707806600054,None,60,60,0,,,12,001,exponential,gyrb,0.75-0.35,2021_May_19_1430,color_judgement_and_subjective_perception,2020.2.10,60.037286996650636,
0,0.75,testing,1000,1,,,,,,,,,0,0,0,0,7,0,28,0,,,,,383.3475783819995,None,d,0.6138417130023299,383.44752567199976,None,382.84715090399914,383.2641540609984,384.0808101830007,384.5809031839999,384.0808101830007,None,0,59,0,,,12,001,exponential,gyrb,0.75-0.35,2021_May_19_1430,color_judgement_and_subjective_perception,2020.2.10,60.037286996650636,
2,0.75,testing,1000,1,,,,,,,,,0,0,0,0,7,1,29,2,,,,,385.1809609519987,None,j,0.5483474989996466,385.28101976700054,None,384.68087287600065,385.09767623600055,385.8477183299983,386.33198260399877,385.8477183299983,None,51,17,0,,,12,001,exponential,gyrb,0.75-0.35,2021_May_19_1430,color_judgement_and_subjective_perception,2020.2.10,60.037286996650636,
3,0.75,testing,1000,1,,,,,,,,,0,0,0,0,7,2,30,3,,,,,386.9320665259984,None,k,0.6612221479990694,387.03207239699987,None,386.4320392670015,386.84878385900083,387.71552697800144,388.2155789360004,387.71552697800144,None,0,0,69,,,12,001,exponential,gyrb,0.75-0.35,2021_May_19_1430,color_judgement_and_subjective_perception,2020.2.10,60.037286996650636,
1,0.75,testing,1000,1,,,,,,,,,0,0,0,0,7,3,31,1,,,,,388.8158315760011,None,None,-1,388.91593044099864,None,388.3156427819995,388.73227612900155,389.83241342900146,390.3326170420005,389.83241342900146,None,57,57,0,,,12,001,exponential,gyrb,0.75-0.35,2021_May_19_1430,color_judgement_and_subjective_perception,2020.2.10,60.037286996650636,
3,0.75,testing,1000,1,,,,,,,,,0,0,0,0,8,0,32,3,,,,,390.93237167700136,None,k,0.6288727419996576,391.0323963740011,None,390.43259292899893,390.84904220300086,391.6836614599997,392.18365582499973,391.6836614599997,None,0,0,68,,,12,001,exponential,gyrb,0.75-0.35,2021_May_19_1430,color_judgement_and_subjective_perception,2020.2.10,60.037286996650636,
0,0.75,testing,1000,1,,,,,,,,,0,0,0,0,8,1,33,0,,,,,392.78386480799963,None,None,-1,392.8838869430001,None,392.28358576200117,392.7002905629997,393.80058273800023,394.3007173750011,393.80058273800023,None,0,55,0,,,12,001,exponential,gyrb,0.75-0.35,2021_May_19_1430,color_judgement_and_subjective_perception,2020.2.10,60.037286996650636,
1,0.75,testing,1000,1,,,,,,,,,0,0,0,0,8,2,34,1,,,,,394.9008515739988,None,d,0.5885602720009047,395.0007948679995,None,394.4005866769985,394.8173515419985,395.61729555499915,396.10252046200185,395.61729555499915,None,59,59,0,,,12,001,exponential,gyrb,0.75-0.35,2021_May_19_1430,color_judgement_and_subjective_perception,2020.2.10,60.037286996650636,
2,0.75,testing,1000,1,,,,,,,,,0,0,0,0,8,3,35,2,,,,,396.70188988000154,None,j,0.5714494730018487,396.80193901299936,None,396.20179690499936,396.61843465199854,397.40175602900126,397.9020792150004,397.40175602900126,None,50,17,0,,,12,001,exponential,gyrb,0.75-0.35,2021_May_19_1430,color_judgement_and_subjective_perception,2020.2.10,60.037286996650636,
1,0.75,testing,1000,1,,,,,,,,,0,0,0,0,9,0,36,1,,,,,398.50224760700075,None,None,-1,398.6022778510014,None,398.0019426969993,398.4188602610011,399.51870481900187,400.0191132619984,399.51870481900187,None,62,62,0,,,12,001,exponential,gyrb,0.75-0.35,2021_May_19_1430,color_judgement_and_subjective_perception,2020.2.10,60.037286996650636,
0,0.75,testing,1000,1,,,,,,,,,0,0,0,0,9,1,37,0,,,,,400.61913845099843,None,d,0.6942077489984513,400.71916681899893,None,400.11903232199984,400.5358334039993,401.4366562440009,401.9367114359993,401.4366562440009,None,0,60,0,,,12,001,exponential,gyrb,0.75-0.35,2021_May_19_1430,color_judgement_and_subjective_perception,2020.2.10,60.037286996650636,
2,0.75,testing,1000,1,,,,,,,,,0,0,0,0,9,2,38,2,,,,,402.5368006360004,None,j,0.5205685569999332,402.6368184390012,None,402.03668228400056,402.4535131779994,403.18687419100024,403.6871381919991,403.18687419100024,None,52,17,0,,,12,001,exponential,gyrb,0.75-0.35,2021_May_19_1430,color_judgement_and_subjective_perception,2020.2.10,60.037286996650636,
3,0.75,testing,1000,1,,,,,,,,,0,0,0,0,9,3,39,3,,,,,404.28714522899827,None,k,0.35416712499863934,404.3872138430015,None,403.7871394069989,404.2039183470006,404.7703378670012,405.2706283689986,404.7703378670012,None,0,0,72,,,12,001,exponential,gyrb,0.75-0.35,2021_May_19_1430,color_judgement_and_subjective_perception,2020.2.10,60.037286996650636,
2,0.75,testing,1000,1,,,,,,,,,0,0,0,0,10,0,40,2,,,,,405.8707316990003,None,j,0.6906333329970948,405.9707361340006,None,405.3705953989993,405.7873113070018,406.6884526950016,407.18846986399876,406.6884526950016,None,51,17,0,,,12,001,exponential,gyrb,0.75-0.35,2021_May_19_1430,color_judgement_and_subjective_perception,2020.2.10,60.037286996650636,
0,0.75,testing,1000,1,,,,,,,,,0,0,0,0,10,1,41,0,,,,,407.7885122270018,None,d,0.5408662160007225,407.8885553180007,None,407.2883739360004,407.70505493100063,408.45519828399847,408.95555730400156,408.45519828399847,None,0,61,0,,,12,001,exponential,gyrb,0.75-0.35,2021_May_19_1430,color_judgement_and_subjective_perception,2020.2.10,60.037286996650636,
3,0.75,testing,1000,1,,,,,,,,,0,0,0,0,10,2,42,3,,,,,409.55560538600184,None,k,0.5178036100005556,409.65555575100007,None,409.0552544940001,409.4722086139991,410.20533407100083,410.7057196300011,410.20533407100083,None,0,0,68,,,12,001,exponential,gyrb,0.75-0.35,2021_May_19_1430,color_judgement_and_subjective_perception,2020.2.10,60.037286996650636,
1,0.75,testing,1000,1,,,,,,,,,0,0,0,0,10,3,43,1,,,,,411.28995687600036,None,f,0.46339253399855806,411.38995939099914,None,410.80555016200015,411.2065754159994,411.87312272599956,412.37341666499924,411.87312272599956,None,62,62,0,,,12,001,exponential,gyrb,0.75-0.35,2021_May_19_1430,color_judgement_and_subjective_perception,2020.2.10,60.037286996650636,
3,0.75,testing,1000,1,,,,,,,,,0,0,0,0,11,0,44,3,,,,,412.9734157919993,None,k,0.6037553289970674,413.07359907999853,None,412.47313146300075,412.89016198399986,413.7069050760001,414.20693597100035,413.7069050760001,None,0,0,65,,,12,001,exponential,gyrb,0.75-0.35,2021_May_19_1430,color_judgement_and_subjective_perception,2020.2.10,60.037286996650636,
2,0.75,testing,1000,1,,,,,,,,,0,0,0,0,11,1,45,2,,,,,414.8071202479987,None,j,0.5620985360001214,414.90718388000096,None,414.3068814590006,414.7237985489992,415.49042635599835,415.9906170809991,415.49042635599835,None,45,15,0,,,12,001,exponential,gyrb,0.75-0.35,2021_May_19_1430,color_judgement_and_subjective_perception,2020.2.10,60.037286996650636,
0,0.75,testing,1000,1,,,,,,,,,0,0,0,0,11,2,46,0,,,,,416.5749229469984,None,d,0.7786093120012083,416.67477555200094,None,416.08918088599967,416.4916437639986,417.4747717530008,417.9750800080001,417.4747717530008,None,0,55,0,,,12,001,exponential,gyrb,0.75-0.35,2021_May_19_1430,color_judgement_and_subjective_perception,2020.2.10,60.037286996650636,
1,0.75,testing,1000,1,,,,,,,,,0,0,0,0,11,3,47,1,,,,,418.57529805399827,None,f,0.4579900999997335,418.6754294739985,None,418.0750356050012,418.49172720799834,419.1585486449985,419.6586749369999,419.1585486449985,None,59,59,0,,,12,001,exponential,gyrb,0.75-0.35,2021_May_19_1430,color_judgement_and_subjective_perception,2020.2.10,60.037286996650636,
3,0.75,testing,1000,1,,,,,,,,,0,0,0,0,12,0,48,3,,,,,420.2586335289998,None,k,0.38260433599862154,420.35873354900104,None,419.758601472,420.1755229590017,420.75864768300016,421.24312131899933,420.75864768300016,None,0,0,60,,,12,001,exponential,gyrb,0.75-0.35,2021_May_19_1430,color_judgement_and_subjective_perception,2020.2.10,60.037286996650636,
2,0.75,testing,1000,1,,,,,,,,,0,0,0,0,12,1,49,2,,,,,421.84309124799984,None,j,0.45420666599966353,421.94316796899875,None,421.34315081599925,421.7599223159996,422.4263463390016,422.92665372899864,422.4263463390016,None,40,13,0,,,12,001,exponential,gyrb,0.75-0.35,2021_May_19_1430,color_judgement_and_subjective_perception,2020.2.10,60.037286996650636,
0,0.75,testing,1000,1,,,,,,,,,0,0,0,0,12,2,50,0,,,,,423.52686689300026,None,d,0.4665287800016813,423.62688504000107,None,423.0265811520003,423.44358526499855,424.1100821330001,424.6102026080007,424.1100821330001,None,0,50,0,,,12,001,exponential,gyrb,0.75-0.35,2021_May_19_1430,color_judgement_and_subjective_perception,2020.2.10,60.037286996650636,
1,0.75,testing,1000,1,,,,,,,,,0,0,0,0,12,3,51,1,,,,,425.2102896409997,None,f,0.36702381600116496,425.31030112499866,None,424.7101651810008,425.1269590590018,425.71027685399895,426.1946874960013,425.71027685399895,None,56,56,0,,,12,001,exponential,gyrb,0.75-0.35,2021_May_19_1430,color_judgement_and_subjective_perception,2020.2.10,60.037286996650636,
1,0.75,testing,1000,1,,,,,,,,,0,0,0,0,13,0,52,1,,,,,426.7947745829988,None,f,0.8305968259992369,426.8947882850007,None,426.29460970199943,426.71119934300077,427.7446934869986,428.2449703509992,427.7446934869986,None,56,56,0,,,12,001,exponential,gyrb,0.75-0.35,2021_May_19_1430,color_judgement_and_subjective_perception,2020.2.10,60.037286996650636,
3,0.75,testing,1000,1,,,,,,,,,0,0,0,0,13,1,53,3,,,,,428.8451088110014,None,k,0.5402300540008582,428.9451235580018,None,428.3448507969988,428.7618744200008,429.5117705900011,430.0118118649989,429.5117705900011,None,0,0,54,,,12,001,exponential,gyrb,0.75-0.35,2021_May_19_1430,color_judgement_and_subjective_perception,2020.2.10,60.037286996650636,
2,0.75,testing,1000,1,,,,,,,,,0,0,0,0,13,2,54,2,,,,,430.6119966340011,None,j,0.5333694279979682,430.7120016080007,None,430.1118219429991,430.52877304999856,431.26271449499836,431.76292236800145,431.26271449499836,None,34,11,0,,,12,001,exponential,gyrb,0.75-0.35,2021_May_19_1430,color_judgement_and_subjective_perception,2020.2.10,60.037286996650636,
0,0.75,testing,1000,1,,,,,,,,,0,0,0,0,13,3,55,0,,,,,432.3630257069999,None,d,0.4623760959984793,432.4630136250016,None,431.86295893400165,432.27966684900093,432.94640619300117,433.44657893399926,432.94640619300117,None,0,44,0,,,12,001,exponential,gyrb,0.75-0.35,2021_May_19_1430,color_judgement_and_subjective_perception,2020.2.10,60.037286996650636,
0,0.75,testing,1000,1,,,,,,,,,0,0,0,0,14,0,56,0,,,,,434.0467912839995,None,d,0.6668979629976093,434.14649411199935,None,433.54643903300166,433.9633973109994,434.8299516070001,435.3301820090019,434.8299516070001,None,0,42,0,,,12,001,exponential,gyrb,0.75-0.35,2021_May_19_1430,color_judgement_and_subjective_perception,2020.2.10,60.037286996650636,
2,0.75,testing,1000,1,,,,,,,,,0,0,0,0,14,1,57,2,,,,,435.93024267099827,None,j,0.7030819850006083,436.0302618960013,None,435.4301469310012,435.84694405700066,436.7644030260017,437.2645501299994,436.7644030260017,None,30,10,0,,,12,001,exponential,gyrb,0.75-0.35,2021_May_19_1430,color_judgement_and_subjective_perception,2020.2.10,60.037286996650636,
1,0.75,testing,1000,1,,,,,,,,,0,0,0,0,14,2,58,1,,,,,437.8646685300009,None,None,-1,437.96472065499984,None,437.3644441110009,437.7814155970009,438.88147203599874,439.3815801790006,438.88147203599874,None,49,49,0,,,12,001,exponential,gyrb,0.75-0.35,2021_May_19_1430,color_judgement_and_subjective_perception,2020.2.10,60.037286996650636,
3,0.75,testing,1000,1,,,,,,,,,0,0,0,0,14,3,59,3,,,,,439.981610548999,None,k,0.4437186070026655,440.0816853869983,None,439.48152573599873,439.8983746929989,440.54829693300053,441.0485392240007,440.54829693300053,None,0,0,49,,,12,001,exponential,gyrb,0.75-0.35,2021_May_19_1430,color_judgement_and_subjective_perception,2020.2.10,60.037286996650636,
2,0.75,testing,1000,1,,,,,,,,,0,0,0,0,15,0,60,2,,,,,441.63279945400063,None,j,0.7525966139983211,441.73273377200167,None,441.13268834799965,441.54949175799993,442.5160898139984,443.01639230100045,442.5160898139984,None,28,9,0,,,12,001,exponential,gyrb,0.75-0.35,2021_May_19_1430,color_judgement_and_subjective_perception,2020.2.10,60.037286996650636,
1,0.75,testing,1000,1,,,,,,,,,0,0,0,0,15,1,61,1,,,,,443.61659656399934,None,None,-1,443.71659412200097,None,443.11627630099974,443.533054653999,444.63313095800186,445.133325756,444.63313095800186,None,49,49,0,,,12,001,exponential,gyrb,0.75-0.35,2021_May_19_1430,color_judgement_and_subjective_perception,2020.2.10,60.037286996650636,
3,0.75,testing,1000,1,,,,,,,,,0,0,0,0,15,2,62,3,,,,,445.7334790169989,None,k,0.6038222589995712,445.8335485509997,None,445.2332475030016,445.6500491549996,446.4675201559985,446.9678180279989,446.4675201559985,None,0,0,47,,,12,001,exponential,gyrb,0.75-0.35,2021_May_19_1430,color_judgement_and_subjective_perception,2020.2.10,60.037286996650636,
0,0.75,testing,1000,1,,,,,,,,,0,0,0,0,15,3,63,0,,,,,447.567750866001,None,d,0.6014991760021076,447.6678875869984,None,447.0676686879997,447.4844261149992,448.30119575500066,448.80156587999954,448.30119575500066,None,0,40,0,,,12,001,exponential,gyrb,0.75-0.35,2021_May_19_1430,color_judgement_and_subjective_perception,2020.2.10,60.037286996650636,
1,0.75,testing,1000,1,,,,,,,,,0,0,0,0,16,0,64,1,,,,,449.40146405199994,None,f,0.5278630979992158,449.50139443900116,None,448.9012715429999,449.3181897709983,450.0514408630006,450.5516817819989,450.0514408630006,None,51,51,0,,,12,001,exponential,gyrb,0.75-0.35,2021_May_19_1430,color_judgement_and_subjective_perception,2020.2.10,60.037286996650636,
3,0.75,testing,1000,1,,,,,,,,,0,0,0,0,16,1,65,3,,,,,451.13598285199987,None,k,0.513444354000967,451.23591397400014,None,450.6515326410008,451.06818691599983,451.76914719499837,452.26939876100005,451.76914719499837,None,0,0,45,,,12,001,exponential,gyrb,0.75-0.35,2021_May_19_1430,color_judgement_and_subjective_perception,2020.2.10,60.037286996650636,
0,0.75,testing,1000,1,,,,,,,,,0,0,0,0,16,2,66,0,,,,,452.869376218001,None,d,0.5081062419994851,452.96919908400014,None,452.36933642200165,452.78591653400144,453.50275908000185,454.00308885100094,453.50275908000185,None,0,36,0,,,12,001,exponential,gyrb,0.75-0.35,2021_May_19_1430,color_judgement_and_subjective_perception,2020.2.10,60.037286996650636,
2,0.75,testing,1000,1,,,,,,,,,0,0,0,0,16,3,67,2,,,,,454.60300425899914,None,k,0.6621395299989672,454.7031125829999,None,454.1031046319986,454.51971827599846,455.3864085970017,455.88664141900153,455.3864085970017,None,24,8,0,,,12,001,exponential,gyrb,0.75-0.35,2021_May_19_1430,color_judgement_and_subjective_perception,2020.2.10,60.037286996650636,
2,0.75,testing,1000,1,,,,,,,,,0,0,0,0,17,0,68,2,,,,,456.47077536399956,None,None,-1,456.5707648690004,None,455.9866132019997,456.3875708429987,457.4874153819983,457.9876330849984,457.4874153819983,None,26,9,0,,,12,001,exponential,gyrb,0.75-0.35,2021_May_19_1430,color_judgement_and_subjective_perception,2020.2.10,60.037286996650636,
1,0.75,testing,1000,1,,,,,,,,,0,0,0,0,17,1,69,1,,,,,458.5879511060011,None,d,0.7254226460026985,458.6879681579994,None,458.0877081949984,458.50462407500163,459.4378945739991,459.9379266799988,459.4378945739991,None,51,51,0,,,12,001,exponential,gyrb,0.75-0.35,2021_May_19_1430,color_judgement_and_subjective_perception,2020.2.10,60.037286996650636,
0,0.75,testing,1000,1,,,,,,,,,0,0,0,0,17,2,70,0,,,,,460.53813300800175,None,f,0.46327902099801577,460.63808634900124,None,460.03787002800163,460.45470176600065,461.1161811439997,461.6056627789985,461.1161811439997,None,0,37,0,,,12,001,exponential,gyrb,0.75-0.35,2021_May_19_1430,color_judgement_and_subjective_perception,2020.2.10,60.037286996650636,
3,0.75,testing,1000,1,,,,,,,,,0,0,0,0,17,3,71,3,,,,,462.20573246999993,None,k,0.5875168509992363,462.3058297839998,None,461.705689710001,462.1223690299994,462.9225091320004,463.4227765600008,462.9225091320004,None,0,0,46,,,12,001,exponential,gyrb,0.75-0.35,2021_May_19_1430,color_judgement_and_subjective_perception,2020.2.10,60.037286996650636,
0,0.75,testing,1000,1,,,,,,,,,0,0,0,0,18,0,72,0,,,,,464.02285381600086,None,d,0.5226622279988078,464.12271136599884,None,463.5227463129995,463.93960625899854,464.6725853659991,465.17280303200096,464.6725853659991,None,0,40,0,,,12,001,exponential,gyrb,0.75-0.35,2021_May_19_1430,color_judgement_and_subjective_perception,2020.2.10,60.037286996650636,
1,0.75,testing,1000,1,,,,,,,,,0,0,0,0,18,1,73,1,,,,,465.7729714999987,None,f,0.3322160950010584,465.8731413909991,None,465.2728789719986,465.6897539749989,466.22386455599917,466.72397581300174,466.22386455599917,None,56,56,0,,,12,001,exponential,gyrb,0.75-0.35,2021_May_19_1430,color_judgement_and_subjective_perception,2020.2.10,60.037286996650636,
3,0.75,testing,1000,1,,,,,,,,,0,0,0,0,18,2,74,3,,,,,467.32408979200045,None,j,0.5733645489999617,467.4240179219996,None,466.82391193900185,467.2407384350008,468.02404809200016,468.52446321800016,468.02404809200016,None,0,0,48,,,12,001,exponential,gyrb,0.75-0.35,2021_May_19_1430,color_judgement_and_subjective_perception,2020.2.10,60.037286996650636,
2,0.75,testing,1000,1,,,,,,,,,0,0,0,0,18,3,75,2,,,,,469.1244905989988,None,j,0.8689840520019061,469.22437925600025,None,468.6242571639996,469.0410072800005,470.12440579100075,470.6247767040004,470.12440579100075,None,34,11,0,,,12,001,exponential,gyrb,0.75-0.35,2021_May_19_1430,color_judgement_and_subjective_perception,2020.2.10,60.037286996650636,
2,0.75,testing,1000,1,,,,,,,,,0,0,0,0,19,0,76,2,,,,,471.20907941399855,None,j,0.4084107109993056,471.3089650340007,None,470.7245153030017,471.1258381250009,471.74210295800003,472.2421868909987,471.74210295800003,None,36,12,0,,,12,001,exponential,gyrb,0.75-0.35,2021_May_19_1430,color_judgement_and_subjective_perception,2020.2.10,60.037286996650636,
1,0.75,testing,1000,1,,,,,,,,,0,0,0,0,19,1,77,1,,,,,472.84239194100155,None,f,0.7908567970007425,472.942509941,None,472.3421667920011,472.75902127800146,473.75925962900146,474.2593465220016,473.75925962900146,None,59,59,0,,,12,001,exponential,gyrb,0.75-0.35,2021_May_19_1430,color_judgement_and_subjective_perception,2020.2.10,60.037286996650636,
3,0.75,testing,1000,1,,,,,,,,,0,0,0,0,19,2,78,3,,,,,474.8593942719999,None,k,0.4620615559979342,474.9593534429987,None,474.359314633999,474.77609736199884,475.4426814539984,475.94298074700055,475.4426814539984,None,0,0,49,,,12,001,exponential,gyrb,0.75-0.35,2021_May_19_1430,color_judgement_and_subjective_perception,2020.2.10,60.037286996650636,
0,0.75,testing,1000,1,,,,,,,,,0,0,0,0,19,3,79,0,,,,,476.52722007899865,None,d,0.561977689001651,476.62728760499886,None,476.0428883150016,476.44386157199915,477.21053797499917,477.71055307500137,477.21053797499917,None,0,40,0,,,12,001,exponential,gyrb,0.75-0.35,2021_May_19_1430,color_judgement_and_subjective_perception,2020.2.10,60.037286996650636,
1,0.75,testing,1000,1,,,,,,,,,0,0,0,0,20,0,80,1,,,,,478.31085655399875,None,f,0.4745032460014045,478.41084129700175,None,477.8104544689995,478.2274761260014,478.9107481840001,479.41088382399903,478.9107481840001,None,57,57,0,,,12,001,exponential,gyrb,0.75-0.35,2021_May_19_1430,color_judgement_and_subjective_perception,2020.2.10,60.037286996650636,
0,0.75,testing,1000,1,,,,,,,,,0,0,0,0,20,1,81,0,,,,,480.0109463020017,None,None,-1,480.11101020500064,None,479.5108864479989,479.92770492099953,481.02767366400076,481.5121963310012,481.02767366400076,None,0,37,0,,,12,001,exponential,gyrb,0.75-0.35,2021_May_19_1430,color_judgement_and_subjective_perception,2020.2.10,60.037286996650636,
3,0.75,testing,1000,1,,,,,,,,,0,0,0,0,20,2,82,3,,,,,482.1120759459991,None,k,0.4091295979997085,482.2122309229999,None,481.61194971299847,482.0287563160018,482.64533964699876,483.1456515559985,482.64533964699876,None,0,0,46,,,12,001,exponential,gyrb,0.75-0.35,2021_May_19_1430,color_judgement_and_subjective_perception,2020.2.10,60.037286996650636,
2,0.75,testing,1000,1,,,,,,,,,0,0,0,0,20,3,83,2,,,,,483.7458469640005,None,j,0.5595874300015566,483.845814368,None,483.2456147330013,483.6625586609989,484.42900271300095,484.92912266799976,484.42900271300095,None,32,11,0,,,12,001,exponential,gyrb,0.75-0.35,2021_May_19_1430,color_judgement_and_subjective_perception,2020.2.10,60.037286996650636,
0,0.75,testing,1000,1,,,,,,,,,0,0,0,0,21,0,84,0,,,,,485.529465874999,None,d,0.503979621000326,485.62939707999976,None,485.02919119500075,485.44596136700056,486.16362434300027,486.66363201700005,486.16362434300027,None,0,37,0,,,12,001,exponential,gyrb,0.75-0.35,2021_May_19_1430,color_judgement_and_subjective_perception,2020.2.10,60.037286996650636,
3,0.75,testing,1000,1,,,,,,,,,0,0,0,0,21,1,85,3,,,,,487.26376900299874,None,k,0.4496083130034094,487.36375969000073,None,486.7636555630015,487.18032479199974,487.83037041100033,488.33066501600115,487.83037041100033,None,0,0,42,,,12,001,exponential,gyrb,0.75-0.35,2021_May_19_1430,color_judgement_and_subjective_perception,2020.2.10,60.037286996650636,
1,0.75,testing,1000,1,,,,,,,,,0,0,0,0,21,2,86,1,,,,,488.93074574500133,None,f,0.6785388789976423,489.03083339099976,None,488.43053712500114,488.84743745599917,489.7307301280016,490.230828148,489.7307301280016,None,52,52,0,,,12,001,exponential,gyrb,0.75-0.35,2021_May_19_1430,color_judgement_and_subjective_perception,2020.2.10,60.037286996650636,
2,0.75,testing,1000,1,,,,,,,,,0,0,0,0,21,3,87,2,,,,,490.8310262090017,None,None,-1,490.9310407080011,None,490.3308063430013,490.74774804000117,491.8318510120007,492.33200612400105,491.8318510120007,None,27,9,0,,,12,001,exponential,gyrb,0.75-0.35,2021_May_19_1430,color_judgement_and_subjective_perception,2020.2.10,60.037286996650636,
3,0.75,testing,1000,1,,,,,,,,,0,0,0,0,22,0,88,3,,,,,492.93207156399876,None,k,0.4771277920008288,493.03219664399876,None,492.43189311199967,492.84878930500054,493.5320982500016,494.03236125200056,493.5320982500016,None,0,0,40,,,12,001,exponential,gyrb,0.75-0.35,2021_May_19_1430,color_judgement_and_subjective_perception,2020.2.10,60.037286996650636,
1,0.75,testing,1000,1,,,,,,,,,0,0,0,0,22,1,89,1,,,,,494.6323600629985,None,f,0.6810552010028914,494.73231191800005,None,494.1322486880017,494.5490677650014,495.4325035789989,495.9325626909995,495.4325035789989,None,50,50,0,,,12,001,exponential,gyrb,0.75-0.35,2021_May_19_1430,color_judgement_and_subjective_perception,2020.2.10,60.037286996650636,
0,0.75,testing,1000,1,,,,,,,,,0,0,0,0,22,2,90,0,,,,,496.5169063909998,None,d,0.36434656499841367,496.6170220130007,None,496.0326050770018,496.433490722,497.0001097200002,497.50021456000104,497.0001097200002,None,0,34,0,,,12,001,exponential,gyrb,0.75-0.35,2021_May_19_1430,color_judgement_and_subjective_perception,2020.2.10,60.037286996650636,
2,0.75,testing,1000,1,,,,,,,,,0,0,0,0,22,3,91,2,,,,,498.1004427879998,None,j,0.7009045929989952,498.2004269509998,None,497.60021547499855,498.017058540001,498.93382901600125,499.433904472,498.93382901600125,None,26,9,0,,,12,001,exponential,gyrb,0.75-0.35,2021_May_19_1430,color_judgement_and_subjective_perception,2020.2.10,60.037286996650636,
0,0.75,testing,1000,1,,,,,,,,,0,0,0,0,23,0,92,0,,,,,500.03397677500107,None,k,0.29524355700050364,500.1341502510004,None,499.5338003549987,499.95054774600067,500.4506009860015,500.95084970699827,500.4506009860015,None,0,31,0,,,12,001,exponential,gyrb,0.75-0.35,2021_May_19_1430,color_judgement_and_subjective_perception,2020.2.10,60.037286996650636,
2,0.75,testing,1000,1,,,,,,,,,0,0,0,0,23,1,93,2,,,,,501.535161890999,None,j,0.6581455420018756,501.63522075799847,None,501.0508331480014,501.4517304610017,502.31829543300046,502.818717438,502.31829543300046,None,27,9,0,,,12,001,exponential,gyrb,0.75-0.35,2021_May_19_1430,color_judgement_and_subjective_perception,2020.2.10,60.037286996650636,
1,0.75,testing,1000,1,,,,,,,,,0,0,0,0,23,2,94,1,,,,,503.41871293200165,None,None,-1,503.5187612910013,None,502.9185604539998,503.335416842001,504.4353399149986,504.93557942700136,504.4353399149986,None,46,46,0,,,12,001,exponential,gyrb,0.75-0.35,2021_May_19_1430,color_judgement_and_subjective_perception,2020.2.10,60.037286996650636,
3,0.75,testing,1000,1,,,,,,,,,0,0,0,0,23,3,95,3,,,,,505.53567279100025,None,k,0.48963485100102844,505.635712149,None,505.03557026400085,505.4524638949988,506.14188825100064,506.63663775999885,506.14188825100064,None,0,0,36,,,12,001,exponential,gyrb,0.75-0.35,2021_May_19_1430,color_judgement_and_subjective_perception,2020.2.10,60.037286996650636,
2,0.75,testing,1000,1,,,,,,,,,0,0,0,0,,,,,0,0,0,2,527.1429962500006,None,k,0.6343877699982841,527.2429025279998,None,526.6427999160005,527.0596610139983,527.9131731540001,528.4099954189987,527.9131731540001,None,27,9,0,506.7545925259983,None,12,001,exponential,gyrb,0.75-0.35,2021_May_19_1430,color_judgement_and_subjective_perception,2020.2.10,60.037286996650636,
0,0.75,testing,1000,1,,,,,,,,,0,0,0,0,,,,,0,1,1,0,528.9921190899986,None,None,-1,529.0768099000015,None,528.5085045619999,528.9101094670004,529.9606491880004,530.4601651379999,529.9606491880004,None,0,35,0,None,None,12,001,exponential,gyrb,0.75-0.35,2021_May_19_1430,color_judgement_and_subjective_perception,2020.2.10,60.037286996650636,
3,0.75,testing,1000,1,,,,,,,,,0,0,0,0,,,,,0,2,2,3,531.0602909059999,None,k,0.4523364659980871,531.1450314300018,None,530.5600400209987,530.9770217920013,531.629350616,532.1279446699991,531.629350616,None,0,0,38,None,None,12,001,exponential,gyrb,0.75-0.35,2021_May_19_1430,color_judgement_and_subjective_perception,2020.2.10,60.037286996650636,
2,0.75,testing,1000,1,,,,,,,,,0,0,0,0,,,,,0,3,3,2,532.7280026949993,None,j,0.8253164070010826,532.8280558309998,None,532.2278204979993,532.6447429250002,533.6781346040007,534.1783677019994,533.6781346040007,None,31,10,0,None,None,12,001,exponential,gyrb,0.75-0.35,2021_May_19_1430,color_judgement_and_subjective_perception,2020.2.10,60.037286996650636,
1,0.75,testing,1000,1,,,,,,,,,0,0,0,0,,,,,1,0,4,1,534.778302005001,None,f,0.7190697410005669,534.8782888409987,None,534.2780796890002,534.6948994310005,535.6283570999985,536.1273510850006,535.6283570999985,None,53,53,0,None,None,12,001,exponential,gyrb,0.75-0.35,2021_May_19_1430,color_judgement_and_subjective_perception,2020.2.10,60.037286996650636,
2,0.75,testing,1000,1,,,,,,,,,0,0,0,0,,,,,1,1,5,2,536.7128152350015,None,k,0.8804339070011338,536.8129346399983,None,536.2127045349989,536.6293828089983,537.7144013840007,538.2129982730003,537.7144013840007,None,32,11,0,None,None,12,001,exponential,gyrb,0.75-0.35,2021_May_19_1430,color_judgement_and_subjective_perception,2020.2.10,60.037286996650636,
3,0.75,testing,1000,1,,,,,,,,,0,0,0,0,,,,,1,2,6,3,538.8132177369989,None,None,-1,538.9133085469985,None,538.3129993699986,538.7300550100008,539.830339701999,540.329939528001,539.830339701999,None,0,0,39,None,None,12,001,exponential,gyrb,0.75-0.35,2021_May_19_1430,color_judgement_and_subjective_perception,2020.2.10,60.037286996650636,
2,0.75,testing,1000,1,,,,,,,,,0,0,0,0,,,,,1,3,7,2,540.9301524090006,None,k,0.7672105159981584,541.0301594369994,None,540.4298987080001,540.8468265379997,541.8166329990017,542.3144812520004,541.8166329990017,None,35,12,0,None,None,12,001,exponential,gyrb,0.75-0.35,2021_May_19_1430,color_judgement_and_subjective_perception,2020.2.10,60.037286996650636,
3,0.75,testing,1000,1,,,,,,,,,0,0,0,0,,,,,2,0,8,3,542.9145670409998,None,k,0.8708266909998201,543.0145464009984,None,542.414238718,542.8313138199992,543.9163016050006,544.4146610550015,543.9163016050006,None,0,0,42,None,None,12,001,exponential,gyrb,0.75-0.35,2021_May_19_1430,color_judgement_and_subjective_perception,2020.2.10,60.037286996650636,
0,0.75,testing,1000,1,,,,,,,,,0,0,0,0,,,,,2,1,9,0,545.0147145139999,None,d,0.8505028270010371,545.1148233610002,None,544.5146438919983,544.9316464039985,545.9982296609996,546.482626555,545.9982296609996,None,0,42,0,None,None,12,001,exponential,gyrb,0.75-0.35,2021_May_19_1430,color_judgement_and_subjective_perception,2020.2.10,60.037286996650636,
0,0.75,testing,1000,1,,,,,,,,,0,0,0,0,,,,,2,2,10,0,547.0826448139997,None,d,0.35070337100114557,547.1826444990002,None,546.5823474540011,546.9992538529987,547.5658740280014,548.0662676149987,547.5658740280014,None,0,44,0,None,None,12,001,exponential,gyrb,0.75-0.35,2021_May_19_1430,color_judgement_and_subjective_perception,2020.2.10,60.037286996650636,
0,0.75,testing,1000,1,,,,,,,,,0,0,0,0,,,,,2,3,11,0,548.6664725090013,None,d,0.3429877700000361,548.7663906029993,None,548.166121197999,548.58285789,549.1329415520013,549.6330196439994,549.1329415520013,None,0,46,0,None,None,12,001,exponential,gyrb,0.75-0.35,2021_May_19_1430,color_judgement_and_subjective_perception,2020.2.10,60.037286996650636,
3,0.75,testing,1000,1,,,,,,,,,0,0,0,0,,,,,3,0,12,3,550.2330862609997,None,k,0.8322201060000225,550.3331496770006,None,549.7329054990005,550.1498450030012,551.1841471929984,551.6842884819998,551.1841471929984,None,0,0,43,None,None,12,001,exponential,gyrb,0.75-0.35,2021_May_19_1430,color_judgement_and_subjective_perception,2020.2.10,60.037286996650636,
3,0.75,testing,1000,1,,,,,,,,,0,0,0,0,,,,,3,1,13,3,552.2841527359997,None,k,0.7012053089965775,552.3841648250018,None,551.7838186080007,552.2009560529987,553.1176085490006,553.617882098999,553.1176085490006,None,0,0,41,None,None,12,001,exponential,gyrb,0.75-0.35,2021_May_19_1430,color_judgement_and_subjective_perception,2020.2.10,60.037286996650636,
1,0.75,testing,1000,1,,,,,,,,,0,0,0,0,,,,,3,2,14,1,554.2181032560002,None,d,0.7033202309976332,554.3180542660011,None,553.7177658200017,554.1346775849997,555.0527947750015,555.5514370909987,555.0527947750015,None,54,54,0,None,None,12,001,exponential,gyrb,0.75-0.35,2021_May_19_1430,color_judgement_and_subjective_perception,2020.2.10,60.037286996650636,
0,0.75,testing,1000,1,,,,,,,,,0,0,0,0,,,,,3,3,15,0,556.1429820129997,None,d,0.7455154990020674,556.2358110130008,None,555.6512911110003,556.0680585029986,557.0039782999993,557.5025086070018,557.0039782999993,None,0,43,0,None,None,12,001,exponential,gyrb,0.75-0.35,2021_May_19_1430,color_judgement_and_subjective_perception,2020.2.10,60.037286996650636,
3,0.75,testing,1000,1,,,,,,,,,0,0,0,0,,,,,4,0,16,3,558.1026979099988,None,k,0.5626523790015199,558.202717016,None,557.6023622979992,558.0193554860016,558.7860317640007,559.2861917779992,558.7860317640007,None,0,0,41,None,None,12,001,exponential,gyrb,0.75-0.35,2021_May_19_1430,color_judgement_and_subjective_perception,2020.2.10,60.037286996650636,
2,0.75,testing,1000,1,,,,,,,,,0,0,0,0,,,,,4,1,17,2,559.8863391230007,None,j,0.6669628960007685,559.9862884210015,None,559.3859926959994,559.8029249950014,560.6863409389989,561.1707597610002,560.6863409389989,None,38,13,0,None,None,12,001,exponential,gyrb,0.75-0.35,2021_May_19_1430,color_judgement_and_subjective_perception,2020.2.10,60.037286996650636,
0,0.75,testing,1000,1,,,,,,,,,0,0,0,0,,,,,4,2,18,0,561.7706247880014,None,d,0.6067692489996261,561.8706027100015,None,561.2704831699994,561.6874928510006,562.5039425840005,563.004401320999,562.5039425840005,None,0,41,0,None,None,12,001,exponential,gyrb,0.75-0.35,2021_May_19_1430,color_judgement_and_subjective_perception,2020.2.10,60.037286996650636,
1,0.75,testing,1000,1,,,,,,,,,0,0,0,0,,,,,4,3,19,1,563.6044827869991,None,None,-1,563.7044983619999,None,563.1040185560014,563.5210169279999,564.6214608970004,565.1212239589986,564.6214608970004,None,54,54,0,None,None,12,001,exponential,gyrb,0.75-0.35,2021_May_19_1430,color_judgement_and_subjective_perception,2020.2.10,60.037286996650636,
1,0.75,testing,1000,1,,,,,,,,,0,0,0,0,,,,,5,0,20,1,565.7213380149988,None,f,0.4960009110000101,565.8213652580016,None,565.2210229580014,565.6379673250012,566.3401830559997,566.8388886100001,566.3401830559997,None,56,56,0,None,None,12,001,exponential,gyrb,0.75-0.35,2021_May_19_1430,color_judgement_and_subjective_perception,2020.2.10,60.037286996650636,
0,0.75,testing,1000,1,,,,,,,,,0,0,0,0,,,,,5,1,21,0,567.4389440160012,None,d,0.890357183998276,567.5389876260015,None,566.9386560899984,567.3557247610006,568.4575887540013,568.9560562459992,568.4575887540013,None,0,41,0,None,None,12,001,exponential,gyrb,0.75-0.35,2021_May_19_1430,color_judgement_and_subjective_perception,2020.2.10,60.037286996650636,
0,0.75,testing,1000,1,,,,,,,,,0,0,0,0,,,,,5,2,22,0,569.5560300549987,None,k,0.3494015969990869,569.6559470290013,None,569.0557726810002,569.4728195179996,570.0249926249999,570.5227893830015,570.0249926249999,None,0,39,0,None,None,12,001,exponential,gyrb,0.75-0.35,2021_May_19_1430,color_judgement_and_subjective_perception,2020.2.10,60.037286996650636,
0,0.75,testing,1000,1,,,,,,,,,0,0,0,0,,,,,5,3,23,0,571.122892419,None,d,0.6142163719996461,571.2071624419987,None,570.6226946700008,571.0396134859984,571.8418984529999,572.3407261690008,571.8418984529999,None,0,41,0,None,None,12,001,exponential,gyrb,0.75-0.35,2021_May_19_1430,color_judgement_and_subjective_perception,2020.2.10,60.037286996650636,
0,0.75,testing,1000,1,,,,,,,,,0,0,0,0,,,,,6,0,24,0,572.9407614939992,None,d,0.6046701779996511,573.0407535349987,None,572.440490033001,572.8572522329996,573.6740947229991,574.174228980999,573.6740947229991,None,0,41,0,None,None,12,001,exponential,gyrb,0.75-0.35,2021_May_19_1430,color_judgement_and_subjective_perception,2020.2.10,60.037286996650636,
2,0.75,testing,1000,1,,,,,,,,,0,0,0,0,,,,,6,1,25,2,574.774282164999,None,j,0.7071148270006233,574.8742457209992,None,574.2741271630002,574.6908814160015,575.6076438300006,576.107792122999,575.6076438300006,None,39,13,0,None,None,12,001,exponential,gyrb,0.75-0.35,2021_May_19_1430,color_judgement_and_subjective_perception,2020.2.10,60.037286996650636,
3,0.75,testing,1000,1,,,,,,,,,0,0,0,0,,,,,6,2,26,3,576.6921647659983,None,k,0.6854316439967079,576.7919379390005,None,576.1918549459988,576.608788821999,577.5106261969995,578.0089863419998,577.5106261969995,None,0,0,38,None,None,12,001,exponential,gyrb,0.75-0.35,2021_May_19_1430,color_judgement_and_subjective_perception,2020.2.10,60.037286996650636,
0,0.75,testing,1000,1,,,,,,,,,0,0,0,0,,,,,6,3,27,0,578.6091741160017,None,None,-1,578.7091063519983,None,578.1087746420017,578.5256191330009,579.6263007310008,580.1259625089988,579.6263007310008,None,0,37,0,None,None,12,001,exponential,gyrb,0.75-0.35,2021_May_19_1430,color_judgement_and_subjective_perception,2020.2.10,60.037286996650636,
3,0.75,testing,1000,1,,,,,,,,,0,0,0,0,,,,,7,0,28,3,580.7260761030011,None,k,0.6193019800011825,580.826068503,None,580.2258100159997,580.6426478389985,581.4785225380001,581.9770289740009,581.4785225380001,None,0,0,37,None,None,12,001,exponential,gyrb,0.75-0.35,2021_May_19_1430,color_judgement_and_subjective_perception,2020.2.10,60.037286996650636,
0,0.75,testing,1000,1,,,,,,,,,0,0,0,0,,,,,7,1,29,0,582.5771037589984,None,d,0.600263354001072,582.6770216320001,None,582.0768717430001,582.493626255,583.3105270990018,583.8106706580002,583.3105270990018,None,0,40,0,None,None,12,001,exponential,gyrb,0.75-0.35,2021_May_19_1430,color_judgement_and_subjective_perception,2020.2.10,60.037286996650636,
0,0.75,testing,1000,1,,,,,,,,,0,0,0,0,,,,,7,2,30,0,584.4107458729995,None,d,0.41464289000214194,584.5107456500009,None,583.9106211340004,584.3275080050007,584.944237994001,585.4442151580006,584.944237994001,None,0,40,0,None,None,12,001,exponential,gyrb,0.75-0.35,2021_May_19_1430,color_judgement_and_subjective_perception,2020.2.10,60.037286996650636,
1,0.75,testing,1000,1,,,,,,,,,0,0,0,0,,,,,7,3,31,1,586.0442096350016,None,f,0.622127131002344,586.143214492,None,585.5441222160007,585.9609510769988,586.7950982389993,587.2954124800017,586.7950982389993,None,56,56,0,None,None,12,001,exponential,gyrb,0.75-0.35,2021_May_19_1430,color_judgement_and_subjective_perception,2020.2.10,60.037286996650636,
2,0.75,testing,1000,1,,,,,,,,,0,0,0,0,,,,,8,0,32,2,587.8954671600004,None,j,0.6176944079998066,587.9956282589992,None,587.3953038699983,587.8121786189986,588.6455337980005,589.1457654750011,588.6455337980005,None,37,12,0,None,None,12,001,exponential,gyrb,0.75-0.35,2021_May_19_1430,color_judgement_and_subjective_perception,2020.2.10,60.037286996650636,
0,0.75,testing,1000,1,,,,,,,,,0,0,0,0,,,,,8,1,33,0,589.7457388629991,None,d,0.6555574859994522,589.8458039760008,None,589.2455879629997,589.6624040809984,590.5289905569989,591.0293065299993,590.5289905569989,None,0,36,0,None,None,12,001,exponential,gyrb,0.75-0.35,2021_May_19_1430,color_judgement_and_subjective_perception,2020.2.10,60.037286996650636,
3,0.75,testing,1000,1,,,,,,,,,0,0,0,0,,,,,8,2,34,3,591.6133285830001,None,f,0.2517663969993009,591.7136096700015,None,591.1289902659992,591.5301876730009,591.9983867720002,592.4969496980011,591.9983867720002,None,0,0,32,None,None,12,001,exponential,gyrb,0.75-0.35,2021_May_19_1430,color_judgement_and_subjective_perception,2020.2.10,60.037286996650636,
1,0.75,testing,1000,1,,,,,,,,,0,0,0,0,,,,,8,3,35,1,593.0970229720006,None,f,0.6882925760000944,593.197066648001,None,592.5967712929996,593.013741925999,593.9154629420009,594.4139519380005,593.9154629420009,None,55,55,0,None,None,12,001,exponential,gyrb,0.75-0.35,2021_May_19_1430,color_judgement_and_subjective_perception,2020.2.10,60.037286996650636,
2,0.75,testing,1000,1,,,,,,,,,0,0,0,0,,,,,9,0,36,2,595.0139426999995,None,k,0.4193723909993423,595.1139989709991,None,594.5137863550008,594.9306250150003,595.5659243750015,596.0641731120013,595.5659243750015,None,34,11,0,None,None,12,001,exponential,gyrb,0.75-0.35,2021_May_19_1430,color_judgement_and_subjective_perception,2020.2.10,60.037286996650636,
3,0.75,testing,1000,1,,,,,,,,,0,0,0,0,,,,,9,1,37,3,596.6484823179999,None,k,0.6568571380012145,596.7485147119987,None,596.1593107119988,596.5651137259993,597.4332702300017,597.9320598599988,597.4332702300017,None,0,0,34,None,None,12,001,exponential,gyrb,0.75-0.35,2021_May_19_1430,color_judgement_and_subjective_perception,2020.2.10,60.037286996650636,
0,0.75,testing,1000,1,,,,,,,,,0,0,0,0,,,,,9,2,38,0,598.5319795540017,None,d,0.8612198090013408,598.6320508370009,None,598.0318388199994,598.4488316390016,599.5154472229988,600.0155225999988,599.5154472229988,None,0,36,0,None,None,12,001,exponential,gyrb,0.75-0.35,2021_May_19_1430,color_judgement_and_subjective_perception,2020.2.10,60.037286996650636,
0,0.75,testing,1000,1,,,,,,,,,0,0,0,0,,,,,9,3,39,0,600.6158077639993,None,None,-1,600.7157005379995,None,600.1155190499994,600.5324023729991,601.6169711699986,602.1167227949991,601.6169711699986,None,0,34,0,None,None,12,001,exponential,gyrb,0.75-0.35,2021_May_19_1430,color_judgement_and_subjective_perception,2020.2.10,60.037286996650636,
2,0.75,testing,1000,1,,,,,,,,,0,0,0,0,,,,,10,0,40,2,602.7167648299983,None,j,0.5646095759984746,602.8167811819985,None,602.2166113349995,602.6334406120004,603.4017921640007,603.9005297840013,603.4017921640007,None,37,12,0,None,None,12,001,exponential,gyrb,0.75-0.35,2021_May_19_1430,color_judgement_and_subjective_perception,2020.2.10,60.037286996650636,
1,0.75,testing,1000,1,,,,,,,,,0,0,0,0,,,,,10,1,41,1,604.5003706870011,None,f,0.7248482819995843,604.6004998739991,None,604.0002618830003,604.4170768139993,605.3505128280012,605.8506482090015,605.3505128280012,None,56,56,0,None,None,12,001,exponential,gyrb,0.75-0.35,2021_May_19_1430,color_judgement_and_subjective_perception,2020.2.10,60.037286996650636,
1,0.75,testing,1000,1,,,,,,,,,0,0,0,0,,,,,10,2,42,1,606.4349071379984,None,f,0.5985963369967067,606.5347961299994,None,605.950516967001,606.3516703700006,607.1514422920009,607.6517195829983,607.1514422920009,None,54,54,0,None,None,12,001,exponential,gyrb,0.75-0.35,2021_May_19_1430,color_judgement_and_subjective_perception,2020.2.10,60.037286996650636,
3,0.75,testing,1000,1,,,,,,,,,0,0,0,0,,,,,10,3,43,3,608.2517366069987,None,k,0.5574849670010735,608.3518880750016,None,607.7515389729997,608.1685606079991,608.9352362880018,609.4354106880019,608.9352362880018,None,0,0,33,None,None,12,001,exponential,gyrb,0.75-0.35,2021_May_19_1430,color_judgement_and_subjective_perception,2020.2.10,60.037286996650636,
1,0.75,testing,1000,1,,,,,,,,,0,0,0,0,,,,,11,0,44,1,610.0355273759997,None,None,-1,610.1354772740015,None,609.5352419810006,609.9520927070007,611.0527098409984,611.5365954970002,611.0527098409984,None,51,51,0,None,None,12,001,exponential,gyrb,0.75-0.35,2021_May_19_1430,color_judgement_and_subjective_perception,2020.2.10,60.037286996650636,
3,0.75,testing,1000,1,,,,,,,,,0,0,0,0,,,,,11,1,45,3,612.1366588009987,None,None,-1,612.2365622200014,None,611.6364068449984,612.0529983829983,613.1532086359985,613.653527284001,613.1532086359985,None,0,0,32,None,None,12,001,exponential,gyrb,0.75-0.35,2021_May_19_1430,color_judgement_and_subjective_perception,2020.2.10,60.037286996650636,
0,0.75,testing,1000,1,,,,,,,,,0,0,0,0,,,,,11,2,46,0,614.2536026769994,None,k,0.32376323800053797,614.3536070240007,None,613.7534455370005,614.170229659001,614.704968891001,615.2037373509993,614.704968891001,None,0,36,0,None,None,12,001,exponential,gyrb,0.75-0.35,2021_May_19_1430,color_judgement_and_subjective_perception,2020.2.10,60.037286996650636,
2,0.75,testing,1000,1,,,,,,,,,0,0,0,0,,,,,11,3,47,2,615.8036602469983,None,j,0.581486324997968,615.903882532999,None,615.3034665990017,615.7204974160013,616.5062386159989,617.0046960569998,616.5062386159989,None,39,13,0,None,None,12,001,exponential,gyrb,0.75-0.35,2021_May_19_1430,color_judgement_and_subjective_perception,2020.2.10,60.037286996650636,
3,0.75,testing,1000,1,,,,,,,,,0,0,0,0,,,,,12,0,48,3,617.6047753419989,None,k,0.5484922190007637,617.7048993739991,None,617.1045008830006,617.521441877001,618.2718059059989,618.7718425650019,618.2718059059989,None,0,0,36,None,None,12,001,exponential,gyrb,0.75-0.35,2021_May_19_1430,color_judgement_and_subjective_perception,2020.2.10,60.037286996650636,
1,0.75,testing,1000,1,,,,,,,,,0,0,0,0,,,,,12,1,49,1,619.3717041400014,None,f,0.5975966190017061,619.4717870460008,None,618.8716826160016,619.2884984140001,620.0885691369986,620.5886677029994,620.0885691369986,None,57,57,0,None,None,12,001,exponential,gyrb,0.75-0.35,2021_May_19_1430,color_judgement_and_subjective_perception,2020.2.10,60.037286996650636,
0,0.75,testing,1000,1,,,,,,,,,0,0,0,0,,,,,12,2,50,0,621.1736450110002,None,d,0.32452519700018456,621.2728615980013,None,620.688634383001,621.1054695499988,621.6228124629997,622.1228455739983,621.6228124629997,None,0,39,0,None,None,12,001,exponential,gyrb,0.75-0.35,2021_May_19_1430,color_judgement_and_subjective_perception,2020.2.10,60.037286996650636,
2,0.75,testing,1000,1,,,,,,,,,0,0,0,0,,,,,12,3,51,2,622.7233297560015,None,k,0.46214957300253445,622.8231883900007,None,622.222828553,622.639665232,623.3079521040017,623.8066797069987,623.3079521040017,None,38,13,0,None,None,12,001,exponential,gyrb,0.75-0.35,2021_May_19_1430,color_judgement_and_subjective_perception,2020.2.10,60.037286996650636,
2,0.75,testing,1000,1,,,,,,,,,0,0,0,0,,,,,13,0,52,2,624.4066645300009,None,j,0.38664688900098554,624.5067158079983,None,623.9065405149995,624.3233788420002,624.9246697400013,625.4235546380005,624.9246697400013,None,40,13,0,None,None,12,001,exponential,gyrb,0.75-0.35,2021_May_19_1430,color_judgement_and_subjective_perception,2020.2.10,60.037286996650636,
1,0.75,testing,1000,1,,,,,,,,,0,0,0,0,,,,,13,1,53,1,626.0236103780007,None,f,0.6576955820019066,626.1236785479996,None,625.5233815249994,625.9404122919987,626.8076461730016,627.3079769340002,626.8076461730016,None,58,58,0,None,None,12,001,exponential,gyrb,0.75-0.35,2021_May_19_1430,color_judgement_and_subjective_perception,2020.2.10,60.037286996650636,
3,0.75,testing,1000,1,,,,,,,,,0,0,0,0,,,,,13,2,54,3,627.9080041439993,None,k,0.7972520289986278,628.0081182270005,None,627.4077921499993,627.8247521189987,628.8247955170009,629.3249652340019,628.8247955170009,None,0,0,37,None,None,12,001,exponential,gyrb,0.75-0.35,2021_May_19_1430,color_judgement_and_subjective_perception,2020.2.10,60.037286996650636,
1,0.75,testing,1000,1,,,,,,,,,0,0,0,0,,,,,13,3,55,1,629.9249919860013,None,f,0.7163331589981681,630.0250451739994,None,629.424808265001,629.8417013420003,630.7589667639986,631.2427776350014,630.7589667639986,None,55,55,0,None,None,12,001,exponential,gyrb,0.75-0.35,2021_May_19_1430,color_judgement_and_subjective_perception,2020.2.10,60.037286996650636,
1,0.75,testing,1000,1,,,,,,,,,0,0,0,0,,,,,14,0,56,1,631.8428067249988,None,f,0.6306687290016271,631.9427068369987,None,631.3425924340008,631.7594298760014,632.5928139120006,633.0929790490009,632.5928139120006,None,53,53,0,None,None,12,001,exponential,gyrb,0.75-0.35,2021_May_19_1430,color_judgement_and_subjective_perception,2020.2.10,60.037286996650636,
2,0.75,testing,1000,1,,,,,,,,,0,0,0,0,,,,,14,1,57,2,633.6931480899984,None,j,0.6601524709985824,633.7932413689996,None,633.1928551509991,633.6098706800003,634.4764278309995,634.9767398539989,634.4764278309995,None,38,13,0,None,None,12,001,exponential,gyrb,0.75-0.35,2021_May_19_1430,color_judgement_and_subjective_perception,2020.2.10,60.037286996650636,
0,0.75,testing,1000,1,,,,,,,,,0,0,0,0,,,,,14,2,58,0,635.5765637920013,None,d,0.6165841500005627,635.6766917489986,None,635.0764083659997,635.4932782450014,636.3119475940002,636.8110982370017,636.3119475940002,None,0,36,0,None,None,12,001,exponential,gyrb,0.75-0.35,2021_May_19_1430,color_judgement_and_subjective_perception,2020.2.10,60.037286996650636,
1,0.75,testing,1000,1,,,,,,,,,0,0,0,0,,,,,14,3,59,1,637.4112362580017,None,f,0.5902962180007307,637.5111329229985,None,636.9107579890006,637.3278470850018,638.1279369000003,638.6282117330011,638.1279369000003,None,49,49,0,None,None,12,001,exponential,gyrb,0.75-0.35,2021_May_19_1430,color_judgement_and_subjective_perception,2020.2.10,60.037286996650636,
3,0.75,testing,1000,1,,,,,,,,,0,0,0,0,,,,,15,0,60,3,639.2281036140012,None,k,0.5651738649976323,639.3281573060012,None,638.7276856860008,639.1447987719985,639.9119998550013,640.4115993730011,639.9119998550013,None,0,0,30,None,None,12,001,exponential,gyrb,0.75-0.35,2021_May_19_1430,color_judgement_and_subjective_perception,2020.2.10,60.037286996650636,
1,0.75,testing,1000,1,,,,,,,,,0,0,0,0,,,,,15,1,61,1,641.0115803849985,None,f,0.63758305599913,641.1117884849991,None,640.511523213001,640.9283854050009,641.7792451700006,642.2793777849984,641.7792451700006,None,46,46,0,None,None,12,001,exponential,gyrb,0.75-0.35,2021_May_19_1430,color_judgement_and_subjective_perception,2020.2.10,60.037286996650636,
