color_idx_ind,target_acc,mode,response_deadline,block_number,trials_training.thisRepN,trials_training.thisTrialN,trials_training.thisN,trials_training.thisIndex,trials_training_deadline.thisRepN,trials_training_deadline.thisTrialN,trials_training_deadline.thisN,trials_training_deadline.thisIndex,blocks.thisRepN,blocks.thisTrialN,blocks.thisN,blocks.thisIndex,trials_staircase.thisRepN,trials_staircase.thisTrialN,trials_staircase.thisN,trials_staircase.thisIndex,trials.thisRepN,trials.thisTrialN,trials.thisN,trials.thisIndex,stimulus_ind.started,stimulus_ind.stopped,key_resp_ind.keys,key_resp_ind.rt,key_resp_ind.started,key_resp_ind.stopped,fixation_cross_1_ind.started,fixation_cross_1_ind.stopped,text.started,text.stopped,dummy_text.started,dummy_text.stopped,stim_ind_color_rgb_r,stim_ind_color_rgb_g,stim_ind_color_rgb_b,text_break_block.started,text_break_block.stopped,participant,session,accuracy_weighting,color_mapping,block_difficulties,date,expName,psychopyVersion,frameRate,
2,0.9,training,1000000000000,,0,0,0,0,,,,,,,,,,,,,,,,,742.5413789340018,None,j,1.1064011469934485,742.6414436630002,None,742.0448579980002,742.4582111220006,743.7766837200033,744.2750991700013,743.7766837200033,None,,,,,,13,001,exponential,ybgr,0.35-0.75,2021_May_20_0900,color_judgement_and_subjective_perception,2020.2.10,60.058127019155705,
1,0.9,training,1000000000000,,0,1,1,1,,,,,,,,,,,,,,,,,744.8592574020004,None,f,0.6125480650007376,744.9592935000037,None,744.3749630859966,744.7758388799994,745.5927235619965,746.0926412219997,745.5927235619965,None,,,,,,13,001,exponential,ybgr,0.35-0.75,2021_May_20_0900,color_judgement_and_subjective_perception,2020.2.10,60.058127019155705,
2,0.9,training,1000000000000,,0,2,2,2,,,,,,,,,,,,,,,,,746.6929385219992,None,k,0.5069538730022032,746.7928738370028,None,746.1925507109991,746.6094784349989,747.326232186002,747.8262503829974,747.326232186002,None,,,,,,13,001,exponential,ybgr,0.35-0.75,2021_May_20_0900,color_judgement_and_subjective_perception,2020.2.10,60.058127019155705,
1,0.9,training,1000000000000,,0,3,3,3,,,,,,,,,,,,,,,,,748.4264183679988,None,f,0.5413603060005698,748.526517899998,None,747.9262501199992,748.343016756,749.0929520439968,749.5932160619996,749.0929520439968,None,,,,,,13,001,exponential,ybgr,0.35-0.75,2021_May_20_0900,color_judgement_and_subjective_perception,2020.2.10,60.058127019155705,
2,0.9,training,1000000000000,,0,4,4,4,,,,,,,,,,,,,,,,,750.177531718,None,f,0.9023242320035934,750.2775082529988,None,749.6931435200022,750.0942313639971,751.2108091120026,751.7111151339996,751.2108091120026,None,,,,,,13,001,exponential,ybgr,0.35-0.75,2021_May_20_0900,color_judgement_and_subjective_perception,2020.2.10,60.058127019155705,
3,0.9,training,1000000000000,,0,5,5,5,,,,,,,,,,,,,,,,,752.3111804229993,None,k,0.8325455910016899,752.4112847049983,None,751.811247808997,752.2278449529986,753.261092175002,753.7613098220027,753.261092175002,None,,,,,,13,001,exponential,ybgr,0.35-0.75,2021_May_20_0900,color_judgement_and_subjective_perception,2020.2.10,60.058127019155705,
2,0.9,training,1000000000000,,0,6,6,6,,,,,,,,,,,,,,,,,754.3616606389987,None,j,0.702411899001163,754.4614317209998,None,753.8612890099976,754.2779562750002,755.1955584640018,755.6957972259988,755.1955584640018,None,,,,,,13,001,exponential,ybgr,0.35-0.75,2021_May_20_0900,color_judgement_and_subjective_perception,2020.2.10,60.058127019155705,
1,0.9,training,1000000000000,,0,7,7,7,,,,,,,,,,,,,,,,,756.2958119609975,None,f,0.6719503349959268,756.3958789820026,None,755.7956400659968,756.2126369730031,757.09603126,757.596000081001,757.09603126,None,,,,,,13,001,exponential,ybgr,0.35-0.75,2021_May_20_0900,color_judgement_and_subjective_perception,2020.2.10,60.058127019155705,
0,0.9,training,1000000000000,,0,8,8,8,,,,,,,,,,,,,,,,,758.1961350619968,None,d,0.49966481600131374,758.2961795529991,None,757.6960617349978,758.1128222999978,758.8128489279989,759.3130433749975,758.8128489279989,None,,,,,,13,001,exponential,ybgr,0.35-0.75,2021_May_20_0900,color_judgement_and_subjective_perception,2020.2.10,60.058127019155705,
3,0.9,training,1000000000000,,0,9,9,9,,,,,,,,,,,,,,,,,759.8972504080011,None,k,0.4704999109962955,759.9972606220035,None,759.4129015639992,759.8140567360024,760.497108274998,760.9972945609989,760.497108274998,None,,,,,,13,001,exponential,ybgr,0.35-0.75,2021_May_20_0900,color_judgement_and_subjective_perception,2020.2.10,60.058127019155705,
0,0.9,training,1000000000000,,0,10,10,10,,,,,,,,,,,,,,,,,761.5976059899986,None,d,0.6183085599986953,761.6975239710009,None,761.0973641719975,761.5142166730002,762.3475634360002,762.8477328040026,762.3475634360002,None,,,,,,13,001,exponential,ybgr,0.35-0.75,2021_May_20_0900,color_judgement_and_subjective_perception,2020.2.10,60.058127019155705,
3,0.9,training,1000000000000,,0,11,11,11,,,,,,,,,,,,,,,,,763.4478703819987,None,k,0.5437668919985299,763.5479900799983,None,762.9476726490029,763.3644368219975,764.1142584249974,764.6148062020002,764.1142584249974,None,,,,,,13,001,exponential,ybgr,0.35-0.75,2021_May_20_0900,color_judgement_and_subjective_perception,2020.2.10,60.058127019155705,
0,0.9,training,1000000000000,,0,12,12,12,,,,,,,,,,,,,,,,,765.1990075619979,None,d,0.6806758829989121,765.2991627660012,None,764.7131993290022,765.115493723999,765.9988511379997,766.4990880800033,765.9988511379997,None,,,,,,13,001,exponential,ybgr,0.35-0.75,2021_May_20_0900,color_judgement_and_subjective_perception,2020.2.10,60.058127019155705,
3,0.9,training,1000000000000,,0,13,13,13,,,,,,,,,,,,,,,,,767.0991880259971,None,k,0.9884710900005302,767.1993749190005,None,766.5990602640013,767.0158602160009,768.2157724549979,768.7161805689975,768.2157724549979,None,,,,,,13,001,exponential,ybgr,0.35-0.75,2021_May_20_0900,color_judgement_and_subjective_perception,2020.2.10,60.058127019155705,
0,0.9,training,1000000000000,,0,14,14,14,,,,,,,,,,,,,,,,,769.3162838889984,None,d,0.5076249720004853,769.4162087770019,None,768.816106721999,769.2328628960022,769.9505425870011,770.4505026309998,769.9505425870011,None,,,,,,13,001,exponential,ybgr,0.35-0.75,2021_May_20_0900,color_judgement_and_subjective_perception,2020.2.10,60.058127019155705,
2,0.9,training,1000000000000,,0,15,15,15,,,,,,,,,,,,,,,,,771.0505797700025,None,j,0.669187179999426,771.1506327879979,None,770.5504135750016,770.9673274960005,771.8507160369991,772.3509686980033,771.8507160369991,None,,,,,,13,001,exponential,ybgr,0.35-0.75,2021_May_20_0900,color_judgement_and_subjective_perception,2020.2.10,60.058127019155705,
3,0.9,training,1000000000000,,0,16,16,16,,,,,,,,,,,,,,,,,772.9509431830011,None,d,0.6329904279991752,773.0508584639974,None,772.4507870410016,772.8675630290018,773.7009073969966,774.2012084270027,773.7009073969966,None,,,,,,13,001,exponential,ybgr,0.35-0.75,2021_May_20_0900,color_judgement_and_subjective_perception,2020.2.10,60.058127019155705,
1,0.9,training,1000000000000,,0,17,17,17,,,,,,,,,,,,,,,,,774.7856555429971,None,f,0.9104052560069249,774.8854050689988,None,774.3010780940022,774.7166896889976,775.818775847998,776.3189185079973,775.818775847998,None,,,,,,13,001,exponential,ybgr,0.35-0.75,2021_May_20_0900,color_judgement_and_subjective_perception,2020.2.10,60.058127019155705,
2,0.9,training,1000000000000,,0,18,18,18,,,,,,,,,,,,,,,,,776.9190853670007,None,j,0.6406623810034944,777.0191612120034,None,776.418973120999,776.8357878969982,777.6857644859992,778.1858734049965,777.6857644859992,None,,,,,,13,001,exponential,ybgr,0.35-0.75,2021_May_20_0900,color_judgement_and_subjective_perception,2020.2.10,60.058127019155705,
0,0.9,training,1000000000000,,0,19,19,19,,,,,,,,,,,,,,,,,778.7860422899976,None,d,0.30986829399626004,778.885972115997,None,778.2858313000033,778.7027042170012,779.2193144830017,779.7182878640015,779.2193144830017,None,,,,,,13,001,exponential,ybgr,0.35-0.75,2021_May_20_0900,color_judgement_and_subjective_perception,2020.2.10,60.058127019155705,
1,0.9,training,1000000000000,,0,20,20,20,,,,,,,,,,,,,,,,,780.3035905799989,None,f,1.0722589200013317,780.403593185998,None,779.8034659010009,780.2203929110037,781.5037174009994,782.004049944997,781.5037174009994,None,,,,,,13,001,exponential,ybgr,0.35-0.75,2021_May_20_0900,color_judgement_and_subjective_perception,2020.2.10,60.058127019155705,
3,0.9,training,1000000000000,,0,21,21,21,,,,,,,,,,,,,,,,,782.6041350029991,None,k,0.4835909220055328,782.7041571180016,None,782.1040354279976,782.5207457849974,783.220646804999,783.7208361960002,783.220646804999,None,,,,,,13,001,exponential,ybgr,0.35-0.75,2021_May_20_0900,color_judgement_and_subjective_perception,2020.2.10,60.058127019155705,
0,0.9,training,1000000000000,,0,22,22,22,,,,,,,,,,,,,,,,,784.3210303029991,None,d,0.7428382540019811,784.4210101779972,None,783.8208535640006,784.2377180809999,785.1884365410006,785.6884701279996,785.1884365410006,None,,,,,,13,001,exponential,ybgr,0.35-0.75,2021_May_20_0900,color_judgement_and_subjective_perception,2020.2.10,60.058127019155705,
1,0.9,training,1000000000000,,0,23,23,23,,,,,,,,,,,,,,,,,786.2887161559993,None,f,0.4230975450045662,786.3887233310015,None,785.7885297719986,786.2053690149987,786.8388521629968,787.3390343189967,786.8388521629968,None,,,,,,13,001,exponential,ybgr,0.35-0.75,2021_May_20_0900,color_judgement_and_subjective_perception,2020.2.10,60.058127019155705,
0,0.9,training,1000000000000,,0,24,24,24,,,,,,,,,,,,,,,,,787.9390629780028,None,d,0.41290226300043287,788.0389347910022,None,787.4390672160007,787.8556052190033,788.4721951090032,788.9725217669984,788.4721951090032,None,,,,,,13,001,exponential,ybgr,0.35-0.75,2021_May_20_0900,color_judgement_and_subjective_perception,2020.2.10,60.058127019155705,
3,0.9,training,1000000000000,,0,25,25,25,,,,,,,,,,,,,,,,,789.5724424880027,None,k,0.45119381199765485,789.6725779030021,None,789.0724201780031,789.4892820280002,790.1567018869973,790.6568654500006,790.1567018869973,None,,,,,,13,001,exponential,ybgr,0.35-0.75,2021_May_20_0900,color_judgement_and_subjective_perception,2020.2.10,60.058127019155705,
2,0.9,training,1000000000000,,0,26,26,26,,,,,,,,,,,,,,,,,791.2570043700034,None,j,0.4628612430024077,791.356981484998,None,790.7568115989998,791.1736045439975,791.8402790379987,792.3405583450003,791.8402790379987,None,,,,,,13,001,exponential,ybgr,0.35-0.75,2021_May_20_0900,color_judgement_and_subjective_perception,2020.2.10,60.058127019155705,
0,0.9,training,1000000000000,,0,27,27,27,,,,,,,,,,,,,,,,,792.9405804950002,None,d,0.8512885889940662,793.0405686009981,None,792.4404795180017,792.8571647540011,793.9239069999967,794.4241321000009,793.9239069999967,None,,,,,,13,001,exponential,ybgr,0.35-0.75,2021_May_20_0900,color_judgement_and_subjective_perception,2020.2.10,60.058127019155705,
1,0.9,training,1000000000000,,0,28,28,28,,,,,,,,,,,,,,,,,795.0082842170013,None,k,0.5755090599996038,795.108294452999,None,794.5239943999986,794.9250383960025,795.7083004559972,796.2086066550037,795.7083004559972,None,,,,,,13,001,exponential,ybgr,0.35-0.75,2021_May_20_0900,color_judgement_and_subjective_perception,2020.2.10,60.058127019155705,
2,0.9,training,1000000000000,,0,29,29,29,,,,,,,,,,,,,,,,,796.8087516349988,None,j,0.5029885190015193,796.908829164,None,796.3085445399993,796.7252333010038,797.4421124950022,797.9422671450011,797.4421124950022,None,,,,,,13,001,exponential,ybgr,0.35-0.75,2021_May_20_0900,color_judgement_and_subjective_perception,2020.2.10,60.058127019155705,
1,0.9,training,1000000000000,,0,30,30,30,,,,,,,,,,,,,,,,,798.5422393920016,None,f,0.4095745159938815,798.6422523560032,None,798.042268418998,798.4589679650016,799.0755693590036,799.5758124269996,799.0755693590036,None,,,,,,13,001,exponential,ybgr,0.35-0.75,2021_May_20_0900,color_judgement_and_subjective_perception,2020.2.10,60.058127019155705,
3,0.9,training,1000000000000,,0,31,31,31,,,,,,,,,,,,,,,,,800.1600391280008,None,k,0.43971961500210455,800.2601294150008,None,799.675478666999,800.0765873970013,800.7266576449983,801.2269080429978,800.7266576449983,None,,,,,,13,001,exponential,ybgr,0.35-0.75,2021_May_20_0900,color_judgement_and_subjective_perception,2020.2.10,60.058127019155705,
1,0.9,training,1000,,,,,,0,0,0,0,,,,,,,,,,,,,808.6286669690016,None,f,0.48308784900291357,808.7287494229968,None,808.1314884610038,808.5453432290014,809.2286247890006,809.7276863529987,809.2286247890006,None,,,,,,13,001,exponential,ybgr,0.35-0.75,2021_May_20_0900,color_judgement_and_subjective_perception,2020.2.10,60.058127019155705,
3,0.9,training,1000,,,,,,0,1,1,1,,,,,,,,,,,,,810.3130922530036,None,k,0.310636648995569,810.4131061459993,None,809.8130265340005,810.2299194739971,810.7464577950013,811.2466581429981,810.7464577950013,None,,,,,,13,001,exponential,ybgr,0.35-0.75,2021_May_20_0900,color_judgement_and_subjective_perception,2020.2.10,60.058127019155705,
0,0.9,training,1000,,,,,,0,2,2,2,,,,,,,,,,,,,811.846757649997,None,d,0.4011031449990696,811.9466768940038,None,811.3466256690008,811.7634935140013,812.3799825039969,812.880279044999,812.3799825039969,None,,,,,,13,001,exponential,ybgr,0.35-0.75,2021_May_20_0900,color_judgement_and_subjective_perception,2020.2.10,60.058127019155705,
3,0.9,training,1000,,,,,,0,3,3,3,,,,,,,,,,,,,813.480398216001,None,j,0.39952375500433845,813.5803143930025,None,812.9802813330025,813.3969989730031,813.9967526309993,814.4970568790013,813.9967526309993,None,,,,,,13,001,exponential,ybgr,0.35-0.75,2021_May_20_0900,color_judgement_and_subjective_perception,2020.2.10,60.058127019155705,
2,0.9,training,1000,,,,,,0,4,4,4,,,,,,,,,,,,,815.0813963280016,None,j,0.5664146940034698,815.1814166230033,None,814.5969586639985,814.9979868730006,815.764618938003,816.2648779930023,815.764618938003,None,,,,,,13,001,exponential,ybgr,0.35-0.75,2021_May_20_0900,color_judgement_and_subjective_perception,2020.2.10,60.058127019155705,
1,0.9,training,1000,,,,,,0,5,5,5,,,,,,,,,,,,,816.8650743539984,None,f,0.2546700349994353,816.9651051879991,None,816.3648048949981,816.7818071579968,817.2482848939981,817.7485680719983,817.2482848939981,None,,,,,,13,001,exponential,ybgr,0.35-0.75,2021_May_20_0900,color_judgement_and_subjective_perception,2020.2.10,60.058127019155705,
3,0.9,training,1000,,,,,,0,6,6,6,,,,,,,,,,,,,818.348565635999,None,k,0.32329086000390816,818.4485590249969,None,817.8484683639981,818.2651925879982,818.7984030470034,819.2987193930021,818.7984030470034,None,,,,,,13,001,exponential,ybgr,0.35-0.75,2021_May_20_0900,color_judgement_and_subjective_perception,2020.2.10,60.058127019155705,
0,0.9,training,1000,,,,,,0,7,7,7,,,,,,,,,,,,,819.8831071520035,None,d,0.3408036649998394,819.9830143090003,None,819.3986492580007,819.7996411720014,820.3494743639967,820.8496608209971,820.3494743639967,None,,,,,,13,001,exponential,ybgr,0.35-0.75,2021_May_20_0900,color_judgement_and_subjective_perception,2020.2.10,60.058127019155705,
1,0.9,training,1000,,,,,,0,8,8,8,,,,,,,,,,,,,821.4499276389979,None,j,0.557986230996903,821.5498450140003,None,820.9496897339995,821.3664810940027,822.1331902940001,822.6335298609993,822.1331902940001,None,,,,,,13,001,exponential,ybgr,0.35-0.75,2021_May_20_0900,color_judgement_and_subjective_perception,2020.2.10,60.058127019155705,
0,0.9,training,1000,,,,,,0,9,9,9,,,,,,,,,,,,,823.2333853009986,None,d,0.47054093000042485,823.3333118160008,None,822.7332115419995,823.150248648999,823.8332987100002,824.3336774639974,823.8332987100002,None,,,,,,13,001,exponential,ybgr,0.35-0.75,2021_May_20_0900,color_judgement_and_subjective_perception,2020.2.10,60.058127019155705,
2,0.9,training,1000,,,,,,0,10,10,10,,,,,,,,,,,,,824.9179505889988,None,j,0.5138048909939243,825.0180744440004,None,824.4337033830016,824.8343679509999,825.551119951997,826.0514064390009,825.551119951997,None,,,,,,13,001,exponential,ybgr,0.35-0.75,2021_May_20_0900,color_judgement_and_subjective_perception,2020.2.10,60.058127019155705,
1,0.9,training,1000,,,,,,0,11,11,11,,,,,,,,,,,,,826.6514207169967,None,f,0.3003628430014942,826.7514344719966,None,826.1514233690032,826.5679613190005,827.0846006939973,827.5852203429968,827.0846006939973,None,,,,,,13,001,exponential,ybgr,0.35-0.75,2021_May_20_0900,color_judgement_and_subjective_perception,2020.2.10,60.058127019155705,
2,0.9,training,1000,,,,,,0,12,12,12,,,,,,,,,,,,,828.1851293619984,None,j,0.590958551998483,828.2848616569972,None,827.6849688549992,828.1016568510022,828.9015861989974,829.4018581950004,828.9015861989974,None,,,,,,13,001,exponential,ybgr,0.35-0.75,2021_May_20_0900,color_judgement_and_subjective_perception,2020.2.10,60.058127019155705,
0,0.9,training,1000,,,,,,0,13,13,13,,,,,,,,,,,,,829.9861607700004,None,d,0.4137113260003389,830.0861233589967,None,829.5017866970011,829.9029229759981,830.5195328100017,831.0195938890029,830.5195328100017,None,,,,,,13,001,exponential,ybgr,0.35-0.75,2021_May_20_0900,color_judgement_and_subjective_perception,2020.2.10,60.058127019155705,
3,0.9,training,1000,,,,,,0,14,14,14,,,,,,,,,,,,,831.6196553059999,None,k,0.4201346720001311,831.7196836380026,None,831.1195702510013,831.5365295660013,832.1696625010009,832.6699611500007,832.1696625010009,None,,,,,,13,001,exponential,ybgr,0.35-0.75,2021_May_20_0900,color_judgement_and_subjective_perception,2020.2.10,60.058127019155705,
1,0.9,training,1000,,,,,,0,15,15,15,,,,,,,,,,,,,833.2699635070021,None,f,0.4898523869997007,833.370005429002,None,832.769965997999,833.1866813469969,833.886745638003,834.3868278809969,833.886745638003,None,,,,,,13,001,exponential,ybgr,0.35-0.75,2021_May_20_0900,color_judgement_and_subjective_perception,2020.2.10,60.058127019155705,
0,0.9,training,1000,,,,,,0,16,16,16,,,,,,,,,,,,,834.9710297190031,None,d,0.4287031979984022,835.071052639003,None,834.4868431580035,834.8876474310018,835.5209025509976,836.0210683109981,835.5209025509976,None,,,,,,13,001,exponential,ybgr,0.35-0.75,2021_May_20_0900,color_judgement_and_subjective_perception,2020.2.10,60.058127019155705,
2,0.9,training,1000,,,,,,0,17,17,17,,,,,,,,,,,,,836.621302435,None,j,0.4424510199969518,836.7213557979994,None,836.1210722830001,836.5379285610034,837.187878372999,837.688198803,837.187878372999,None,,,,,,13,001,exponential,ybgr,0.35-0.75,2021_May_20_0900,color_judgement_and_subjective_perception,2020.2.10,60.058127019155705,
1,0.9,training,1000,,,,,,0,18,18,18,,,,,,,,,,,,,838.2881497780036,None,d,0.42375194300257135,838.3880948939986,None,837.7879361509986,838.2049683849982,838.8382070110019,839.3384795599995,838.8382070110019,None,,,,,,13,001,exponential,ybgr,0.35-0.75,2021_May_20_0900,color_judgement_and_subjective_perception,2020.2.10,60.058127019155705,
2,0.9,training,1000,,,,,,0,19,19,19,,,,,,,,,,,,,839.9226953289981,None,f,0.4531652239966206,840.0226377279978,None,839.4384356029987,839.8392780209979,840.5061151909977,841.0061094170014,840.5061151909977,None,,,,,,13,001,exponential,ybgr,0.35-0.75,2021_May_20_0900,color_judgement_and_subjective_perception,2020.2.10,60.058127019155705,
3,0.9,training,1000,,,,,,0,20,20,20,,,,,,,,,,,,,841.6061282599985,None,k,0.5375670319990604,841.7062773459984,None,841.1061382319967,841.5230359350026,842.2728876469992,842.7730693789999,842.2728876469992,None,,,,,,13,001,exponential,ybgr,0.35-0.75,2021_May_20_0900,color_judgement_and_subjective_perception,2020.2.10,60.058127019155705,
1,0.9,training,1000,,,,,,0,21,21,21,,,,,,,,,,,,,843.3730817660035,None,f,0.44275335499696666,843.4730933590035,None,842.8729386659979,843.2899001499973,843.9396979279991,844.4401531390031,843.9396979279991,None,,,,,,13,001,exponential,ybgr,0.35-0.75,2021_May_20_0900,color_judgement_and_subjective_perception,2020.2.10,60.058127019155705,
3,0.9,training,1000,,,,,,0,22,22,22,,,,,,,,,,,,,845.0243086580012,None,k,0.5196129239993752,845.1242182089991,None,844.5399190829994,844.9409143739977,845.6742788050033,846.1743435949975,845.6742788050033,None,,,,,,13,001,exponential,ybgr,0.35-0.75,2021_May_20_0900,color_judgement_and_subjective_perception,2020.2.10,60.058127019155705,
0,0.9,training,1000,,,,,,0,23,23,23,,,,,,,,,,,,,846.7744648939988,None,d,0.42522346900659613,846.8745962090034,None,846.2743028719997,846.691063197999,847.3246949199965,847.8247144650013,847.3246949199965,None,,,,,,13,001,exponential,ybgr,0.35-0.75,2021_May_20_0900,color_judgement_and_subjective_perception,2020.2.10,60.058127019155705,
3,0.9,training,1000,,,,,,0,24,24,24,,,,,,,,,,,,,848.4246767349978,None,k,0.8550700050036539,848.5247404960028,None,847.9247695459999,848.3413131089983,849.408258260999,849.8925468590023,849.408258260999,None,,,,,,13,001,exponential,ybgr,0.35-0.75,2021_May_20_0900,color_judgement_and_subjective_perception,2020.2.10,60.058127019155705,
0,0.9,training,1000,,,,,,0,25,25,25,,,,,,,,,,,,,850.4926206169985,None,f,0.43541089199425187,850.5924338059995,None,849.9924745320022,850.4091278769993,851.059164172002,851.5594940049996,851.059164172002,None,,,,,,13,001,exponential,ybgr,0.35-0.75,2021_May_20_0900,color_judgement_and_subjective_perception,2020.2.10,60.058127019155705,
2,0.9,training,1000,,,,,,0,26,26,26,,,,,,,,,,,,,852.1595235600034,None,j,0.6162682530048187,852.2595483789992,None,851.6593678599966,852.0761617519966,852.8928827089985,853.3929524780033,852.8928827089985,None,,,,,,13,001,exponential,ybgr,0.35-0.75,2021_May_20_0900,color_judgement_and_subjective_perception,2020.2.10,60.058127019155705,
0,0.9,training,1000,,,,,,0,27,27,27,,,,,,,,,,,,,853.9931319259995,None,d,0.31069961600587703,854.0930612649972,None,853.4929931919978,853.909756840003,854.4263377629977,854.910709552998,854.4263377629977,None,,,,,,13,001,exponential,ybgr,0.35-0.75,2021_May_20_0900,color_judgement_and_subjective_perception,2020.2.10,60.058127019155705,
2,0.9,training,1000,,,,,,0,28,28,28,,,,,,,,,,,,,855.5107937479988,None,j,0.6970348329996341,855.6108012260011,None,855.010735803,855.4274415850014,856.3275622450019,856.8277107169997,856.3275622450019,None,,,,,,13,001,exponential,ybgr,0.35-0.75,2021_May_20_0900,color_judgement_and_subjective_perception,2020.2.10,60.058127019155705,
3,0.9,training,1000,,,,,,0,29,29,29,,,,,,,,,,,,,857.4277748919994,None,k,0.5319311729981564,857.5278891170019,None,856.9276047270032,857.3446598209994,858.0778499509979,858.5779938199994,858.0778499509979,None,,,,,,13,001,exponential,ybgr,0.35-0.75,2021_May_20_0900,color_judgement_and_subjective_perception,2020.2.10,60.058127019155705,
1,0.9,training,1000,,,,,,0,30,30,30,,,,,,,,,,,,,859.1780612400034,None,f,0.5658878059985,859.277958202998,None,858.6778710650033,859.0948712190002,859.8623313610005,860.3623888259972,859.8623313610005,None,,,,,,13,001,exponential,ybgr,0.35-0.75,2021_May_20_0900,color_judgement_and_subjective_perception,2020.2.10,60.058127019155705,
0,0.9,training,1000,,,,,,0,31,31,31,,,,,,,,,,,,,860.9623271129967,None,j,0.5334365559974685,861.062423440002,None,860.4623256039995,860.8790167490006,861.6124417809988,862.111494646997,861.6124417809988,None,,,,,,13,001,exponential,ybgr,0.35-0.75,2021_May_20_0900,color_judgement_and_subjective_perception,2020.2.10,60.058127019155705,
1,0.9,training,1000,,,,,,0,32,32,32,,,,,,,,,,,,,862.7127385139975,None,f,0.44716023500222946,862.812690812003,None,862.2127150450033,862.6294549469967,863.2793798679995,863.7794367550014,863.2793798679995,None,,,,,,13,001,exponential,ybgr,0.35-0.75,2021_May_20_0900,color_judgement_and_subjective_perception,2020.2.10,60.058127019155705,
2,0.9,training,1000,,,,,,0,33,33,33,,,,,,,,,,,,,864.3796439189973,None,k,0.39624035300221294,864.4796350480028,None,863.8794663750014,864.2963618580034,864.8970140860038,865.3971817670026,864.8970140860038,None,,,,,,13,001,exponential,ybgr,0.35-0.75,2021_May_20_0900,color_judgement_and_subjective_perception,2020.2.10,60.058127019155705,
0,0.9,training,1000,,,,,,0,34,34,34,,,,,,,,,,,,,865.9973919280019,None,d,0.6904088049996062,866.0974133060008,None,865.4972194090005,865.914171477998,866.8140948080036,867.3144379049991,866.8140948080036,None,,,,,,13,001,exponential,ybgr,0.35-0.75,2021_May_20_0900,color_judgement_and_subjective_perception,2020.2.10,60.058127019155705,
2,0.9,training,1000,,,,,,0,35,35,35,,,,,,,,,,,,,867.9143709639975,None,j,0.5493268049976905,868.0144858909989,None,867.414384417003,867.8310797969971,868.5809404570027,869.081095223999,868.5809404570027,None,,,,,,13,001,exponential,ybgr,0.35-0.75,2021_May_20_0900,color_judgement_and_subjective_perception,2020.2.10,60.058127019155705,
0,0.9,training,1000,,,,,,0,36,36,36,,,,,,,,,,,,,869.6812879479985,None,f,0.5418674609973095,869.7659501800008,None,869.1812094100023,869.5979257900035,870.3319810609974,870.8322344740009,870.3319810609974,None,,,,,,13,001,exponential,ybgr,0.35-0.75,2021_May_20_0900,color_judgement_and_subjective_perception,2020.2.10,60.058127019155705,
1,0.9,training,1000,,,,,,0,37,37,37,,,,,,,,,,,,,871.4322484720033,None,f,0.543242667998129,871.5324562899987,None,870.9320560929991,871.3489063180023,872.0991721739992,872.5993090870033,872.0991721739992,None,,,,,,13,001,exponential,ybgr,0.35-0.75,2021_May_20_0900,color_judgement_and_subjective_perception,2020.2.10,60.058127019155705,
3,0.9,training,1000,,,,,,0,38,38,38,,,,,,,,,,,,,873.1992467079981,None,k,0.5445596739955363,873.2992101780037,None,872.6991189870023,873.1158243739992,873.8661438519994,874.3662245640007,873.8661438519994,None,,,,,,13,001,exponential,ybgr,0.35-0.75,2021_May_20_0900,color_judgement_and_subjective_perception,2020.2.10,60.058127019155705,
2,0.9,training,1000,,,,,,0,39,39,39,,,,,,,,,,,,,874.9505065449994,None,k,0.52155640500132,875.0503078129987,None,874.4661128439984,874.8671636799991,875.6002065339999,876.1006296210035,875.6002065339999,None,,,,,,13,001,exponential,ybgr,0.35-0.75,2021_May_20_0900,color_judgement_and_subjective_perception,2020.2.10,60.058127019155705,
1,0.9,training,1000,,,,,,0,40,40,40,,,,,,,,,,,,,876.7006735370014,None,f,0.5551409039981081,876.800708777002,None,876.2005198979969,876.6172624570027,877.3840722120003,877.8839943869971,877.3840722120003,None,,,,,,13,001,exponential,ybgr,0.35-0.75,2021_May_20_0900,color_judgement_and_subjective_perception,2020.2.10,60.058127019155705,
0,0.9,training,1000,,,,,,0,41,41,41,,,,,,,,,,,,,878.4841849759978,None,d,0.6037240029982058,878.5841311969998,None,877.9840636709996,878.4009352529974,879.2178291890013,879.7177388069977,879.2178291890013,None,,,,,,13,001,exponential,ybgr,0.35-0.75,2021_May_20_0900,color_judgement_and_subjective_perception,2020.2.10,60.058127019155705,
2,0.9,training,1000,,,,,,0,42,42,42,,,,,,,,,,,,,880.3021339230036,None,j,0.6258946770030889,880.4019729799984,None,879.8019843020011,880.218759657997,881.0519879760031,881.5521990929992,881.0519879760031,None,,,,,,13,001,exponential,ybgr,0.35-0.75,2021_May_20_0900,color_judgement_and_subjective_perception,2020.2.10,60.058127019155705,
3,0.9,training,1000,,,,,,0,43,43,43,,,,,,,,,,,,,882.1522983460018,None,k,0.3115622559998883,882.2522695700027,None,881.652255216999,882.0690610230013,882.5856808530007,883.0857142059976,882.5856808530007,None,,,,,,13,001,exponential,ybgr,0.35-0.75,2021_May_20_0900,color_judgement_and_subjective_perception,2020.2.10,60.058127019155705,
1,0.9,training,1000,,,,,,0,44,44,44,,,,,,,,,,,,,883.6857167709968,None,f,0.3537356080050813,883.7860563689974,None,883.1857121979992,883.602534247002,884.169192055997,884.6692157319994,884.169192055997,None,,,,,,13,001,exponential,ybgr,0.35-0.75,2021_May_20_0900,color_judgement_and_subjective_perception,2020.2.10,60.058127019155705,
3,0.9,training,1000,,,,,,0,45,45,45,,,,,,,,,,,,,885.2536304239984,None,k,0.3862243380062864,885.3536102369981,None,884.761852540003,885.1704985399992,885.770178687002,886.2702852150032,885.770178687002,None,,,,,,13,001,exponential,ybgr,0.35-0.75,2021_May_20_0900,color_judgement_and_subjective_perception,2020.2.10,60.058127019155705,
2,0.9,training,1000,,,,,,0,46,46,46,,,,,,,,,,,,,886.8703839809968,None,j,0.3214662509999471,886.9704138390007,None,886.3702526109992,886.7869098910014,887.3203096470024,887.8206377449969,887.3203096470024,None,,,,,,13,001,exponential,ybgr,0.35-0.75,2021_May_20_0900,color_judgement_and_subjective_perception,2020.2.10,60.058127019155705,
3,0.9,training,1000,,,,,,0,47,47,47,,,,,,,,,,,,,888.4206823630011,None,f,0.49909292100346647,888.520748242001,None,887.920559719998,888.3372997810002,889.0372111510005,889.5375640690036,889.0372111510005,None,,,,,,13,001,exponential,ybgr,0.35-0.75,2021_May_20_0900,color_judgement_and_subjective_perception,2020.2.10,60.058127019155705,
3,0.9,training,1000,,,,,,0,48,48,48,,,,,,,,,,,,,890.121782219001,None,k,0.4699962719969335,890.221817245998,None,889.6376357460031,890.0384859979968,890.7215056040004,891.2219422199996,890.7215056040004,None,,,,,,13,001,exponential,ybgr,0.35-0.75,2021_May_20_0900,color_judgement_and_subjective_perception,2020.2.10,60.058127019155705,
3,0.9,training,1000,,,,,,0,49,49,49,,,,,,,,,,,,,891.822054254997,None,k,0.29763331999856746,891.9222050000026,None,891.322185584002,891.7387121680003,892.2388290250019,892.7388296909994,892.2388290250019,None,,,,,,13,001,exponential,ybgr,0.35-0.75,2021_May_20_0900,color_judgement_and_subjective_perception,2020.2.10,60.058127019155705,
1,0.9,training,1000,,,,,,0,50,50,50,,,,,,,,,,,,,893.3388570620009,None,f,0.46886527499736985,893.4389557920003,None,892.8389170649971,893.2555830199999,893.9390113580012,894.4391611949977,893.9390113580012,None,,,,,,13,001,exponential,ybgr,0.35-0.75,2021_May_20_0900,color_judgement_and_subjective_perception,2020.2.10,60.058127019155705,
0,0.9,training,1000,,,,,,0,51,51,51,,,,,,,,,,,,,895.0234686080003,None,d,0.3924027329994715,895.123437633003,None,894.5391776210017,894.9401624099992,895.5399339740034,896.0402247390011,895.5399339740034,None,,,,,,13,001,exponential,ybgr,0.35-0.75,2021_May_20_0900,color_judgement_and_subjective_perception,2020.2.10,60.058127019155705,
3,0.9,training,1000,,,,,,0,52,52,52,,,,,,,,,,,,,896.6403500250017,None,k,0.4154291880040546,896.7403689880011,None,896.1401685689998,896.5568750090024,897.1736207909998,897.6739713830029,897.1736207909998,None,,,,,,13,001,exponential,ybgr,0.35-0.75,2021_May_20_0900,color_judgement_and_subjective_perception,2020.2.10,60.058127019155705,
2,0.9,training,1000,,,,,,0,53,53,53,,,,,,,,,,,,,898.2739826120014,None,j,0.32592438899882836,898.3739084260014,None,897.7739055549973,898.1906579930001,898.7238906190032,899.2240778030027,898.7238906190032,None,,,,,,13,001,exponential,ybgr,0.35-0.75,2021_May_20_0900,color_judgement_and_subjective_perception,2020.2.10,60.058127019155705,
1,0.9,training,1000,,,,,,0,54,54,54,,,,,,,,,,,,,899.8082379309999,None,f,0.3595701119993464,899.9082737830031,None,899.3239098409977,899.740791983997,900.2915665000037,900.7917261409966,900.2915665000037,None,,,,,,13,001,exponential,ybgr,0.35-0.75,2021_May_20_0900,color_judgement_and_subjective_perception,2020.2.10,60.058127019155705,
1,0.9,training,1000,,,,,,0,55,55,55,,,,,,,,,,,,,901.3918542460015,None,f,0.3519330720009748,901.4919067880037,None,900.8916142410017,901.3083935070026,901.8752020300017,902.3755837279969,901.8752020300017,None,,,,,,13,001,exponential,ybgr,0.35-0.75,2021_May_20_0900,color_judgement_and_subjective_perception,2020.2.10,60.058127019155705,
2,0.9,training,1000,,,,,,0,56,56,56,,,,,,,,,,,,,902.975318908997,None,j,0.34442227499675937,903.0753243159998,None,902.4754136639967,902.892151920998,903.4421762560014,903.9422979450028,903.4421762560014,None,,,,,,13,001,exponential,ybgr,0.35-0.75,2021_May_20_0900,color_judgement_and_subjective_perception,2020.2.10,60.058127019155705,
0,0.9,training,1000,,,,,,0,57,57,57,,,,,,,,,,,,,904.5423788999979,None,f,0.45741803500277456,904.6424300439976,None,904.0422453220017,904.4589745839985,905.1265335310018,905.6266017719972,905.1265335310018,None,,,,,,13,001,exponential,ybgr,0.35-0.75,2021_May_20_0900,color_judgement_and_subjective_perception,2020.2.10,60.058127019155705,
3,0.9,training,1000,,,,,,0,58,58,58,,,,,,,,,,,,,906.2267289340016,None,j,0.48512355300044874,906.3267177559974,None,905.7265295679972,906.1433734910024,906.8434402939965,907.3435739720007,906.8434402939965,None,,,,,,13,001,exponential,ybgr,0.35-0.75,2021_May_20_0900,color_judgement_and_subjective_perception,2020.2.10,60.058127019155705,
1,0.9,training,1000,,,,,,0,59,59,59,,,,,,,,,,,,,907.9435735040024,None,j,0.4882934950001072,908.0435490410018,None,907.4435409590005,907.8604214329971,908.5602862879969,909.0604960970013,908.5602862879969,None,,,,,,13,001,exponential,ybgr,0.35-0.75,2021_May_20_0900,color_judgement_and_subjective_perception,2020.2.10,60.058127019155705,
2,0.9,training,1000,,,,,,0,60,60,60,,,,,,,,,,,,,909.660562021003,None,j,0.6204603470032453,909.7593858239998,None,909.1604186589975,909.5773006730014,910.4113000630023,910.9114667500035,910.4113000630023,None,,,,,,13,001,exponential,ybgr,0.35-0.75,2021_May_20_0900,color_judgement_and_subjective_perception,2020.2.10,60.058127019155705,
1,0.9,training,1000,,,,,,0,61,61,61,,,,,,,,,,,,,911.5117413159969,None,f,0.38416811099887127,911.6115903570026,None,911.0114639530002,911.4284984100013,912.0281761410006,912.5285275279966,912.0281761410006,None,,,,,,13,001,exponential,ybgr,0.35-0.75,2021_May_20_0900,color_judgement_and_subjective_perception,2020.2.10,60.058127019155705,
3,0.9,training,1000,,,,,,0,62,62,62,,,,,,,,,,,,,913.1285643480005,None,k,0.47112758600269444,913.2287187129987,None,912.6286154300033,913.0454116260007,913.7285182499982,914.2287664370015,913.7285182499982,None,,,,,,13,001,exponential,ybgr,0.35-0.75,2021_May_20_0900,color_judgement_and_subjective_perception,2020.2.10,60.058127019155705,
3,0.9,training,1000,,,,,,0,63,63,63,,,,,,,,,,,,,914.8129747359999,None,k,0.586611635000736,914.9132036470037,None,914.3288810049999,914.745521375,915.5296716040029,916.0300645509997,915.5296716040029,None,,,,,,13,001,exponential,ybgr,0.35-0.75,2021_May_20_0900,color_judgement_and_subjective_perception,2020.2.10,60.058127019155705,
3,0.9,training,1000,,,,,,0,64,64,64,,,,,,,,,,,,,916.6299669779983,None,k,0.3138735780012212,916.7299664449965,None,916.1297225809976,916.5466866990027,917.0632671280036,917.5636228049989,917.0632671280036,None,,,,,,13,001,exponential,ybgr,0.35-0.75,2021_May_20_0900,color_judgement_and_subjective_perception,2020.2.10,60.058127019155705,
1,0.9,training,1000,,,,,,0,65,65,65,,,,,,,,,,,,,918.1635311749997,None,d,0.38832461199490353,918.2634997810019,None,917.6635061589986,918.0801071609967,918.6801109599983,919.1804618189999,918.6801109599983,None,,,,,,13,001,exponential,ybgr,0.35-0.75,2021_May_20_0900,color_judgement_and_subjective_perception,2020.2.10,60.058127019155705,
0,0.9,training,1000,,,,,,0,66,66,66,,,,,,,,,,,,,919.7717608579987,None,d,0.46713324400479905,919.8646439630029,None,919.280442356001,919.6970549070029,920.3645148189971,920.8647083629985,920.3645148189971,None,,,,,,13,001,exponential,ybgr,0.35-0.75,2021_May_20_0900,color_judgement_and_subjective_perception,2020.2.10,60.058127019155705,
0,0.9,training,1000,,,,,,0,67,67,67,,,,,,,,,,,,,921.4649027569976,None,d,0.6549419150032918,921.5647963770025,None,920.9647994710031,921.3816138819966,922.2482662670009,922.7485341209976,922.2482662670009,None,,,,,,13,001,exponential,ybgr,0.35-0.75,2021_May_20_0900,color_judgement_and_subjective_perception,2020.2.10,60.058127019155705,
0,0.9,training,1000,,,,,,0,68,68,68,,,,,,,,,,,,,923.3483661189966,None,d,0.41118628100230126,923.4485479810028,None,922.8483372499977,923.2651722200026,923.8816119070034,924.3821422499968,923.8816119070034,None,,,,,,13,001,exponential,ybgr,0.35-0.75,2021_May_20_0900,color_judgement_and_subjective_perception,2020.2.10,60.058127019155705,
3,0.9,training,1000,,,,,,0,69,69,69,,,,,,,,,,,,,924.9663604629968,None,k,0.8733650029971614,925.0664646400037,None,924.4820538470012,924.8828955569988,925.9662956760003,926.4663533760031,925.9662956760003,None,,,,,,13,001,exponential,ybgr,0.35-0.75,2021_May_20_0900,color_judgement_and_subjective_perception,2020.2.10,60.058127019155705,
0,0.9,training,1000,,,,,,0,70,70,70,,,,,,,,,,,,,927.0665761619966,None,d,0.3972509480008739,927.1665966509972,None,926.5664007209998,926.9834126290007,927.5832721210027,928.083395515001,927.5832721210027,None,,,,,,13,001,exponential,ybgr,0.35-0.75,2021_May_20_0900,color_judgement_and_subjective_perception,2020.2.10,60.058127019155705,
2,0.9,training,1000,,,,,,0,71,71,71,,,,,,,,,,,,,928.6833068530032,None,f,0.4443124919998809,928.7834465979977,None,928.1833665450031,928.6001988450007,929.2501461060019,929.7502431009998,929.2501461060019,None,,,,,,13,001,exponential,ybgr,0.35-0.75,2021_May_20_0900,color_judgement_and_subjective_perception,2020.2.10,60.058127019155705,
3,0.9,training,1000,,,,,,0,72,72,72,,,,,,,,,,,,,930.3346281609993,None,k,0.7211564230019576,930.4346845530017,None,929.8344156719977,930.2512032259983,931.1844555869975,931.6847526630008,931.1844555869975,None,,,,,,13,001,exponential,ybgr,0.35-0.75,2021_May_20_0900,color_judgement_and_subjective_perception,2020.2.10,60.058127019155705,
2,0.9,training,1000,,,,,,0,73,73,73,,,,,,,,,,,,,932.2849968570008,None,j,0.6267587790061953,932.3850155330001,None,931.7847410059985,932.2016310780018,933.0348656450005,933.534986421997,933.0348656450005,None,,,,,,13,001,exponential,ybgr,0.35-0.75,2021_May_20_0900,color_judgement_and_subjective_perception,2020.2.10,60.058127019155705,
2,0.9,training,1000,,,,,,0,74,74,74,,,,,,,,,,,,,934.1353106359966,None,j,0.3524979270005133,934.2352983180026,None,933.6351034100007,934.0516694010003,934.6184738320007,935.1028501140026,934.6184738320007,None,,,,,,13,001,exponential,ybgr,0.35-0.75,2021_May_20_0900,color_judgement_and_subjective_perception,2020.2.10,60.058127019155705,
1,0.9,training,1000,,,,,,0,75,75,75,,,,,,,,,,,,,935.7027562959993,None,f,0.39299580000079004,935.8028241619977,None,935.2028793659993,935.6195672999966,936.2194401719971,936.7197071100018,936.2194401719971,None,,,,,,13,001,exponential,ybgr,0.35-0.75,2021_May_20_0900,color_judgement_and_subjective_perception,2020.2.10,60.058127019155705,
3,0.9,training,1000,,,,,,0,76,76,76,,,,,,,,,,,,,937.3198026129976,None,k,0.6240863499988336,937.4197228249977,None,936.8196607799982,937.2366097539998,938.0697950050017,938.5699365580003,938.0697950050017,None,,,,,,13,001,exponential,ybgr,0.35-0.75,2021_May_20_0900,color_judgement_and_subjective_perception,2020.2.10,60.058127019155705,
0,0.9,training,1000,,,,,,0,77,77,77,,,,,,,,,,,,,939.1700510750015,None,d,0.6539078880014131,939.2698901309996,None,938.6698575979972,939.0866254209977,939.9542408810012,940.4542734089991,939.9542408810012,None,,,,,,13,001,exponential,ybgr,0.35-0.75,2021_May_20_0900,color_judgement_and_subjective_perception,2020.2.10,60.058127019155705,
2,0.9,training,1000,,,,,,0,78,78,78,,,,,,,,,,,,,941.0544354790036,None,j,0.5612841729962383,941.1544606969983,None,940.5541928219973,940.9711980049979,941.7377912320007,942.2380702430019,941.7377912320007,None,,,,,,13,001,exponential,ybgr,0.35-0.75,2021_May_20_0900,color_judgement_and_subjective_perception,2020.2.10,60.058127019155705,
1,0.9,training,1000,,,,,,0,79,79,79,,,,,,,,,,,,,942.8382295479969,None,f,0.5056960539950524,942.9381378469989,None,942.3379829990008,942.7549253830002,943.4713393959973,943.9716099939978,943.4713393959973,None,,,,,,13,001,exponential,ybgr,0.35-0.75,2021_May_20_0900,color_judgement_and_subjective_perception,2020.2.10,60.058127019155705,
1,0.9,training,1000,,,,,,0,80,80,80,,,,,,,,,,,,,944.5717117280001,None,f,0.604195322994201,944.6716528300021,None,944.0714687450018,944.4883317830026,945.305896523998,945.8061683850028,945.305896523998,None,,,,,,13,001,exponential,ybgr,0.35-0.75,2021_May_20_0900,color_judgement_and_subjective_perception,2020.2.10,60.058127019155705,
0,0.9,training,1000,,,,,,0,81,81,81,,,,,,,,,,,,,946.4062602929989,None,d,0.5215666240037535,946.5061554269996,None,945.9061452769965,946.322694362003,947.055938466001,947.5562246870031,947.055938466001,None,,,,,,13,001,exponential,ybgr,0.35-0.75,2021_May_20_0900,color_judgement_and_subjective_perception,2020.2.10,60.058127019155705,
0,0.9,training,1000,,,,,,0,82,82,82,,,,,,,,,,,,,948.1563535960013,None,d,0.38748041299550096,948.2563689800008,None,947.6562922599987,948.0728425199995,948.6730409750016,949.1733272030033,948.6730409750016,None,,,,,,13,001,exponential,ybgr,0.35-0.75,2021_May_20_0900,color_judgement_and_subjective_perception,2020.2.10,60.058127019155705,
1,0.9,training,1000,,,,,,0,83,83,83,,,,,,,,,,,,,949.7720206919985,None,j,0.41019265800423454,949.857612687003,None,949.2731773190026,949.6899941489974,950.2906351429992,950.7907864610024,950.2906351429992,None,,,,,,13,001,exponential,ybgr,0.35-0.75,2021_May_20_0900,color_judgement_and_subjective_perception,2020.2.10,60.058127019155705,
2,0.9,training,1000,,,,,,0,84,84,84,,,,,,,,,,,,,951.3911351229981,None,j,0.312978331996419,951.4908600130002,None,950.8908979159969,951.3075514750017,951.8242475820007,952.3247126200004,951.8242475820007,None,,,,,,13,001,exponential,ybgr,0.35-0.75,2021_May_20_0900,color_judgement_and_subjective_perception,2020.2.10,60.058127019155705,
1,0.9,training,1000,,,,,,0,85,85,85,,,,,,,,,,,,,952.9247216189979,None,f,0.4592215930024395,953.0246209280012,None,952.4245864179975,952.8411980829987,953.5078585369993,954.0081075720009,953.5078585369993,None,,,,,,13,001,exponential,ybgr,0.35-0.75,2021_May_20_0900,color_judgement_and_subjective_perception,2020.2.10,60.058127019155705,
3,0.9,training,1000,,,,,,0,86,86,86,,,,,,,,,,,,,954.6081445849995,None,k,0.5915519740010495,954.7082876229979,None,954.1080394149976,954.5248605700035,955.325820703998,955.8258099840023,955.325820703998,None,,,,,,13,001,exponential,ybgr,0.35-0.75,2021_May_20_0900,color_judgement_and_subjective_perception,2020.2.10,60.058127019155705,
0,0.9,training,1000,,,,,,0,87,87,87,,,,,,,,,,,,,956.4259565899993,None,d,0.4619258430029731,956.5259116200032,None,955.9257565029984,956.3426394690032,957.0092373040025,957.5097548400008,957.0092373040025,None,,,,,,13,001,exponential,ybgr,0.35-0.75,2021_May_20_0900,color_judgement_and_subjective_perception,2020.2.10,60.058127019155705,
2,0.9,training,1000,,,,,,0,88,88,88,,,,,,,,,,,,,958.1095981210019,None,d,0.386272050003754,958.2095728420027,None,957.6095423540028,958.0263044780004,958.6261550089985,959.1263641629994,958.6261550089985,None,,,,,,13,001,exponential,ybgr,0.35-0.75,2021_May_20_0900,color_judgement_and_subjective_perception,2020.2.10,60.058127019155705,
0,0.9,training,1000,,,,,,0,89,89,89,,,,,,,,,,,,,959.7264787320019,None,d,0.521122641999682,959.8107134949969,None,959.2265728990023,959.6431956450033,960.3605422949986,960.8608010300013,960.3605422949986,None,,,,,,13,001,exponential,ybgr,0.35-0.75,2021_May_20_0900,color_judgement_and_subjective_perception,2020.2.10,60.058127019155705,
0,0.9,training,1000,,,,,,0,90,90,90,,,,,,,,,,,,,961.4609446890026,None,d,0.46679298100207234,961.5609428079988,None,960.9607024950019,961.3775014170023,962.0608505330019,962.5611621159987,962.0608505330019,None,,,,,,13,001,exponential,ybgr,0.35-0.75,2021_May_20_0900,color_judgement_and_subjective_perception,2020.2.10,60.058127019155705,
2,0.9,training,1000,,,,,,0,91,91,91,,,,,,,,,,,,,963.1611222409992,None,j,0.5506727989995852,963.2610863360023,None,962.6610670230002,963.0777844839977,963.8445442989978,964.3446270089989,963.8445442989978,None,,,,,,13,001,exponential,ybgr,0.35-0.75,2021_May_20_0900,color_judgement_and_subjective_perception,2020.2.10,60.058127019155705,
2,0.9,training,1000,,,,,,0,92,92,92,,,,,,,,,,,,,964.9289500570012,None,j,0.42290663399762707,965.0289195200021,None,964.4446055310036,964.8456260829989,965.4789642679971,965.9791576510033,965.4789642679971,None,,,,,,13,001,exponential,ybgr,0.35-0.75,2021_May_20_0900,color_judgement_and_subjective_perception,2020.2.10,60.058127019155705,
1,0.9,training,1000,,,,,,0,93,93,93,,,,,,,,,,,,,966.5790537939974,None,k,0.4765787080032169,966.6792832979991,None,966.0789610229986,966.4957394890007,967.1790849120007,967.6793235840014,967.1790849120007,None,,,,,,13,001,exponential,ybgr,0.35-0.75,2021_May_20_0900,color_judgement_and_subjective_perception,2020.2.10,60.058127019155705,
2,0.9,training,1000,,,,,,0,94,94,94,,,,,,,,,,,,,968.2794585939992,None,j,0.5845068740018178,968.3793330629996,None,967.7792791699976,968.1961289620012,968.9958870940027,969.4963763749984,968.9958870940027,None,,,,,,13,001,exponential,ybgr,0.35-0.75,2021_May_20_0900,color_judgement_and_subjective_perception,2020.2.10,60.058127019155705,
3,0.9,training,1000,,,,,,0,95,95,95,,,,,,,,,,,,,970.0805716500035,None,k,0.24721653800224885,970.1806133270002,None,969.5962377830001,969.9971621430013,970.447237979999,970.9473144570002,970.447237979999,None,,,,,,13,001,exponential,ybgr,0.35-0.75,2021_May_20_0900,color_judgement_and_subjective_perception,2020.2.10,60.058127019155705,
2,0.35,testing,1000,1,,,,,,,,,0,0,0,0,0,0,0,2,,,,,978.8493299019974,None,None,-1,978.949370014001,None,978.3558512949967,978.7659897539997,979.8505234969998,980.3505423320021,979.8505234969998,None,0,21,0,,,13,001,exponential,ybgr,0.35-0.75,2021_May_20_0900,color_judgement_and_subjective_perception,2020.2.10,60.058127019155705,
1,0.35,testing,1000,1,,,,,,,,,0,0,0,0,0,1,1,1,,,,,980.9504009960001,None,None,-1,981.050509020999,None,980.4502891779994,980.8670603889987,981.9672992510023,982.4674444580014,981.9672992510023,None,0,0,24,,,13,001,exponential,ybgr,0.35-0.75,2021_May_20_0900,color_judgement_and_subjective_perception,2020.2.10,60.058127019155705,
0,0.35,testing,1000,1,,,,,,,,,0,0,0,0,0,2,2,0,,,,,983.0674251629971,None,j,0.12445629200374242,983.1673924130009,None,982.5673609649966,982.9842180319974,983.3172738619978,983.8176023519991,983.3172738619978,None,29,29,0,,,13,001,exponential,ybgr,0.35-0.75,2021_May_20_0900,color_judgement_and_subjective_perception,2020.2.10,60.058127019155705,
3,0.35,testing,1000,1,,,,,,,,,0,0,0,0,0,3,3,3,,,,,984.4177020260031,None,f,0.3501146909984527,984.5177066999968,None,983.9174929369983,984.3343584929971,984.8850684799982,985.3852223849972,984.8850684799982,None,40,13,0,,,13,001,exponential,ybgr,0.35-0.75,2021_May_20_0900,color_judgement_and_subjective_perception,2020.2.10,60.058127019155705,
0,0.35,testing,1000,1,,,,,,,,,0,0,0,0,1,0,4,0,,,,,985.9852999229988,None,None,-1,986.0853032450032,None,985.4851567310034,985.9021785500008,987.0021426750027,987.5023993319992,987.0021426750027,None,32,32,0,,,13,001,exponential,ybgr,0.35-0.75,2021_May_20_0900,color_judgement_and_subjective_perception,2020.2.10,60.058127019155705,
2,0.35,testing,1000,1,,,,,,,,,0,0,0,0,1,1,5,2,,,,,988.1023832900028,None,k,0.39344282200181624,988.2023840699985,None,987.6021641640036,988.0192556609982,988.6189114200024,989.1191729929997,988.6189114200024,None,0,27,0,,,13,001,exponential,ybgr,0.35-0.75,2021_May_20_0900,color_judgement_and_subjective_perception,2020.2.10,60.058127019155705,
1,0.35,testing,1000,1,,,,,,,,,0,0,0,0,1,2,6,1,,,,,989.719267335,None,j,0.30406783599755727,989.803752036998,None,989.219073289998,989.6359017790019,990.1368724569984,990.6366957630016,990.1368724569984,None,0,0,30,,,13,001,exponential,ybgr,0.35-0.75,2021_May_20_0900,color_judgement_and_subjective_perception,2020.2.10,60.058127019155705,
3,0.35,testing,1000,1,,,,,,,,,0,0,0,0,1,3,7,3,,,,,991.2369998700015,None,d,0.5787931099985144,991.3370656140032,None,990.7368218659976,991.1535285920036,991.9369975640002,992.4372300090035,991.9369975640002,None,45,15,0,,,13,001,exponential,ybgr,0.35-0.75,2021_May_20_0900,color_judgement_and_subjective_perception,2020.2.10,60.058127019155705,
1,0.35,testing,1000,1,,,,,,,,,0,0,0,0,2,0,8,1,,,,,993.037159665997,None,f,0.5863876820003497,993.137434354001,None,992.5371367089974,992.9538981180012,993.7539812690011,994.2540187620034,993.7539812690011,None,0,0,33,,,13,001,exponential,ybgr,0.35-0.75,2021_May_20_0900,color_judgement_and_subjective_perception,2020.2.10,60.058127019155705,
3,0.35,testing,1000,1,,,,,,,,,0,0,0,0,2,1,9,3,,,,,994.838584723002,None,j,0.545178111999121,994.9386026069988,None,994.3540901439992,994.7708146860023,995.5050267359984,996.0050220530029,995.5050267359984,None,48,16,0,,,13,001,exponential,ybgr,0.35-0.75,2021_May_20_0900,color_judgement_and_subjective_perception,2020.2.10,60.058127019155705,
0,0.35,testing,1000,1,,,,,,,,,0,0,0,0,2,2,10,0,,,,,996.6053850579992,None,f,0.8905328280015965,996.7053108620021,None,996.1051072429982,996.5219151950005,997.622112195997,998.1221762920031,997.622112195997,None,39,39,0,,,13,001,exponential,ybgr,0.35-0.75,2021_May_20_0900,color_judgement_and_subjective_perception,2020.2.10,60.058127019155705,
2,0.35,testing,1000,1,,,,,,,,,0,0,0,0,2,3,11,2,,,,,998.7221570620022,None,f,0.8455380949963001,998.8223017030032,None,998.2221803010034,998.6388625019972,999.6889289180035,1000.1732543780017,999.6889289180035,None,0,34,0,,,13,001,exponential,ybgr,0.35-0.75,2021_May_20_0900,color_judgement_and_subjective_perception,2020.2.10,60.058127019155705,
3,0.35,testing,1000,1,,,,,,,,,0,0,0,0,3,0,12,3,,,,,1000.7733492569969,None,k,0.5383125009975629,1000.8735274900027,None,1000.2734057060006,1000.6902197430027,1001.440018235,1001.940230799999,1001.440018235,None,52,17,0,,,13,001,exponential,ybgr,0.35-0.75,2021_May_20_0900,color_judgement_and_subjective_perception,2020.2.10,60.058127019155705,
1,0.35,testing,1000,1,,,,,,,,,0,0,0,0,3,1,13,1,,,,,1002.5403988370017,None,f,0.8434459390045959,1002.6403810499978,None,1002.0402552570013,1002.4571546340012,1003.5069834980022,1004.0072044560002,1003.5069834980022,None,0,0,37,,,13,001,exponential,ybgr,0.35-0.75,2021_May_20_0900,color_judgement_and_subjective_perception,2020.2.10,60.058127019155705,
0,0.35,testing,1000,1,,,,,,,,,0,0,0,0,3,2,14,0,,,,,1004.6073756469996,None,j,0.6164000179996947,1004.7073960190028,None,1004.1071363570009,1004.5239549239996,1005.3415959740014,1005.841737499999,1005.3415959740014,None,40,40,0,,,13,001,exponential,ybgr,0.35-0.75,2021_May_20_0900,color_judgement_and_subjective_perception,2020.2.10,60.058127019155705,
2,0.35,testing,1000,1,,,,,,,,,0,0,0,0,3,3,15,2,,,,,1006.441808896001,None,j,0.3900358530008816,1006.5418089570012,None,1005.9415450779998,1006.3584654259976,1006.9583948910004,1007.4584227570012,1006.9583948910004,None,0,33,0,,,13,001,exponential,ybgr,0.35-0.75,2021_May_20_0900,color_judgement_and_subjective_perception,2020.2.10,60.058127019155705,
0,0.35,testing,1000,1,,,,,,,,,0,0,0,0,4,0,16,0,,,,,1008.0586625020005,None,j,0.5651383910008008,1008.1587351049966,None,1007.5588006699982,1007.9754651210023,1008.7418668399987,1009.2422692879991,1008.7418668399987,None,39,39,0,,,13,001,exponential,ybgr,0.35-0.75,2021_May_20_0900,color_judgement_and_subjective_perception,2020.2.10,60.058127019155705,
2,0.35,testing,1000,1,,,,,,,,,0,0,0,0,4,1,17,2,,,,,1009.8266165710011,None,j,0.4932702150035766,1009.9265600500003,None,1009.3421097059982,1009.7590012919973,1010.443194446998,1010.9434822059993,1010.443194446998,None,0,32,0,,,13,001,exponential,ybgr,0.35-0.75,2021_May_20_0900,color_judgement_and_subjective_perception,2020.2.10,60.058127019155705,
1,0.35,testing,1000,1,,,,,,,,,0,0,0,0,4,2,18,1,,,,,1011.5432804599986,None,f,0.5204457479994744,1011.6434095959994,None,1011.0432164610029,1011.4599694760036,1012.1933952379986,1012.6936955569981,1012.1933952379986,None,0,0,31,,,13,001,exponential,ybgr,0.35-0.75,2021_May_20_0900,color_judgement_and_subjective_perception,2020.2.10,60.058127019155705,
3,0.35,testing,1000,1,,,,,,,,,0,0,0,0,4,3,19,3,,,,,1013.2936755859992,None,k,0.3861395589992753,1013.3936973529999,None,1012.7935468799988,1013.2103269490035,1013.8103646070012,1014.3105141240012,1013.8103646070012,None,46,15,0,,,13,001,exponential,ybgr,0.35-0.75,2021_May_20_0900,color_judgement_and_subjective_perception,2020.2.10,60.058127019155705,
0,0.35,testing,1000,1,,,,,,,,,0,0,0,0,5,0,20,0,,,,,1014.8948409400036,None,d,0.4489901560009457,1014.9948205920009,None,1014.4102674820024,1014.8118199550008,1015.4612811249972,1015.9615579050005,1015.4612811249972,None,36,36,0,,,13,001,exponential,ybgr,0.35-0.75,2021_May_20_0900,color_judgement_and_subjective_perception,2020.2.10,60.058127019155705,
2,0.35,testing,1000,1,,,,,,,,,0,0,0,0,5,1,21,2,,,,,1016.5616669020019,None,f,0.5981446020014118,1016.6617038350014,None,1016.0614024570023,1016.4783293869987,1017.2784201039976,1017.7784186350036,1017.2784201039976,None,0,27,0,,,13,001,exponential,ybgr,0.35-0.75,2021_May_20_0900,color_judgement_and_subjective_perception,2020.2.10,60.058127019155705,
3,0.35,testing,1000,1,,,,,,,,,0,0,0,0,5,2,22,3,,,,,1018.3787081629998,None,j,0.6132151650017477,1018.4786434749985,None,1017.8784208439974,1018.295213243,1019.111829139998,1019.6121098689982,1019.111829139998,None,42,14,0,,,13,001,exponential,ybgr,0.35-0.75,2021_May_20_0900,color_judgement_and_subjective_perception,2020.2.10,60.058127019155705,
1,0.35,testing,1000,1,,,,,,,,,0,0,0,0,5,3,23,1,,,,,1020.1962443550001,None,f,0.6673087849994772,1020.2964658839992,None,1019.7120067310025,1020.1129906100032,1020.9961546269988,1021.496475574997,1020.9961546269988,None,0,0,25,,,13,001,exponential,ybgr,0.35-0.75,2021_May_20_0900,color_judgement_and_subjective_perception,2020.2.10,60.058127019155705,
0,0.35,testing,1000,1,,,,,,,,,0,0,0,0,6,0,24,0,,,,,1022.096759236003,None,j,0.6150139959936496,1022.1968384229986,None,1021.5964942080027,1022.0132939390023,1022.8299288060007,1023.3301692949972,1022.8299288060007,None,33,33,0,,,13,001,exponential,ybgr,0.35-0.75,2021_May_20_0900,color_judgement_and_subjective_perception,2020.2.10,60.058127019155705,
2,0.35,testing,1000,1,,,,,,,,,0,0,0,0,6,1,25,2,,,,,1023.9302180480008,None,d,0.3975155950029148,1024.030323031002,None,1023.4300874410037,1023.8469916179965,1024.4470154200026,1024.9313147509965,1024.4470154200026,None,0,22,0,,,13,001,exponential,ybgr,0.35-0.75,2021_May_20_0900,color_judgement_and_subjective_perception,2020.2.10,60.058127019155705,
3,0.35,testing,1000,1,,,,,,,,,0,0,0,0,6,2,26,3,,,,,1025.5314273600015,None,j,0.42845946099987486,1025.6313558300026,None,1025.0311792010034,1025.4479534709972,1026.0811752880036,1026.5814463200004,1026.0811752880036,None,39,13,0,,,13,001,exponential,ybgr,0.35-0.75,2021_May_20_0900,color_judgement_and_subjective_perception,2020.2.10,60.058127019155705,
1,0.35,testing,1000,1,,,,,,,,,0,0,0,0,6,3,27,1,,,,,1027.181585885999,None,f,0.6262269770013518,1027.2816332459988,None,1026.6815863149968,1027.0983569289965,1027.9315052039965,1028.4316103439996,1027.9315052039965,None,0,0,24,,,13,001,exponential,ybgr,0.35-0.75,2021_May_20_0900,color_judgement_and_subjective_perception,2020.2.10,60.058127019155705,
3,0.35,testing,1000,1,,,,,,,,,0,0,0,0,7,0,28,3,,,,,1029.0318782820032,None,d,0.4801630260044476,1029.1316741710034,None,1028.5316548560004,1028.9484241710015,1029.6318089600027,1030.1162817919976,1029.6318089600027,None,40,13,0,,,13,001,exponential,ybgr,0.35-0.75,2021_May_20_0900,color_judgement_and_subjective_perception,2020.2.10,60.058127019155705,
1,0.35,testing,1000,1,,,,,,,,,0,0,0,0,7,1,29,1,,,,,1030.7160573319998,None,j,0.8036107389998506,1030.8162115689993,None,1030.2160230549998,1030.632771024997,1031.649490267002,1032.1498555150029,1031.649490267002,None,0,0,23,,,13,001,exponential,ybgr,0.35-0.75,2021_May_20_0900,color_judgement_and_subjective_perception,2020.2.10,60.058127019155705,
0,0.35,testing,1000,1,,,,,,,,,0,0,0,0,7,2,30,0,,,,,1032.7498899499988,None,j,0.5298596960055875,1032.8499883850018,None,1032.2498184270007,1032.6664602450037,1033.3998149440013,1033.8999823400009,1033.3998149440013,None,36,36,0,,,13,001,exponential,ybgr,0.35-0.75,2021_May_20_0900,color_judgement_and_subjective_perception,2020.2.10,60.058127019155705,
2,0.35,testing,1000,1,,,,,,,,,0,0,0,0,7,3,31,2,,,,,1034.4999687009986,None,d,0.5076458240000647,1034.6002092240014,None,1034.0000305590002,1034.4167532069987,1035.1343792710031,1035.6346253189986,1035.1343792710031,None,0,27,0,,,13,001,exponential,ybgr,0.35-0.75,2021_May_20_0900,color_judgement_and_subjective_perception,2020.2.10,60.058127019155705,
1,0.35,testing,1000,1,,,,,,,,,0,0,0,0,8,0,32,1,,,,,1036.2345799460018,None,d,0.3651318080010242,1036.3346954840017,None,1035.7345925949994,1036.1512279509989,1036.7179132340025,1037.2181432360012,1036.7179132340025,None,0,0,25,,,13,001,exponential,ybgr,0.35-0.75,2021_May_20_0900,color_judgement_and_subjective_perception,2020.2.10,60.058127019155705,
3,0.35,testing,1000,1,,,,,,,,,0,0,0,0,8,1,33,3,,,,,1037.8181538249992,None,k,0.34143841200420866,1037.918374437002,None,1037.3180594880032,1037.7347995279997,1038.284622471001,1038.7848997120018,1038.284622471001,None,46,15,0,,,13,001,exponential,ybgr,0.35-0.75,2021_May_20_0900,color_judgement_and_subjective_perception,2020.2.10,60.058127019155705,
2,0.35,testing,1000,1,,,,,,,,,0,0,0,0,8,2,34,2,,,,,1039.3852103750032,None,f,0.5587658320000628,1039.4850791740027,None,1038.884889480003,1039.3017661979975,1040.0692179120015,1040.5692363179987,1040.0692179120015,None,0,31,0,,,13,001,exponential,ybgr,0.35-0.75,2021_May_20_0900,color_judgement_and_subjective_perception,2020.2.10,60.058127019155705,
0,0.35,testing,1000,1,,,,,,,,,0,0,0,0,8,3,35,0,,,,,1041.169481361998,None,j,0.5103525049999007,1041.269520089998,None,1040.6694466269983,1041.085999816998,1041.802748987997,1042.3030990280022,1041.802748987997,None,42,42,0,,,13,001,exponential,ybgr,0.35-0.75,2021_May_20_0900,color_judgement_and_subjective_perception,2020.2.10,60.058127019155705,
3,0.35,testing,1000,1,,,,,,,,,0,0,0,0,9,0,36,3,,,,,1042.9031280380004,None,k,0.6165549079960329,1043.003244929998,None,1042.4030285479967,1042.8197701180034,1043.6529708270027,1044.1531780689984,1043.6529708270027,None,48,16,0,,,13,001,exponential,ybgr,0.35-0.75,2021_May_20_0900,color_judgement_and_subjective_perception,2020.2.10,60.058127019155705,
1,0.35,testing,1000,1,,,,,,,,,0,0,0,0,9,1,37,1,,,,,1044.753423399001,None,f,0.45433764300105395,1044.8375165239995,None,1044.253155395003,1044.6700464910027,1045.3209439650018,1045.8210256559978,1045.3209439650018,None,0,0,27,,,13,001,exponential,ybgr,0.35-0.75,2021_May_20_0900,color_judgement_and_subjective_perception,2020.2.10,60.058127019155705,
2,0.35,testing,1000,1,,,,,,,,,0,0,0,0,9,2,38,2,,,,,1046.4211324589996,None,j,0.49066669199964963,1046.5211678330015,None,1045.921040936999,1046.3378406550037,1047.0377115989977,1047.5380747340023,1047.0377115989977,None,0,32,0,,,13,001,exponential,ybgr,0.35-0.75,2021_May_20_0900,color_judgement_and_subjective_perception,2020.2.10,60.058127019155705,
0,0.35,testing,1000,1,,,,,,,,,0,0,0,0,9,3,39,0,,,,,1048.1380317959993,None,d,0.7017108000000007,1048.2381009610035,None,1047.638034067997,1048.0546756800031,1048.9713917580011,1049.4715316739967,1048.9713917580011,None,41,41,0,,,13,001,exponential,ybgr,0.35-0.75,2021_May_20_0900,color_judgement_and_subjective_perception,2020.2.10,60.058127019155705,
2,0.35,testing,1000,1,,,,,,,,,0,0,0,0,10,0,40,2,,,,,1050.0557365490022,None,j,0.7520462180036702,1050.1557895989972,None,1049.571509745998,1049.9726513060014,1050.9390077610005,1051.439446819997,1050.9390077610005,None,0,29,0,,,13,001,exponential,ybgr,0.35-0.75,2021_May_20_0900,color_judgement_and_subjective_perception,2020.2.10,60.058127019155705,
0,0.35,testing,1000,1,,,,,,,,,0,0,0,0,10,1,41,0,,,,,1052.039486073998,None,j,0.5923545099940384,1052.1394908509974,None,1051.5392619630002,1051.9560386610028,1052.7560250820025,1053.2562657189992,1052.7560250820025,None,38,38,0,,,13,001,exponential,ybgr,0.35-0.75,2021_May_20_0900,color_judgement_and_subjective_perception,2020.2.10,60.058127019155705,
1,0.35,testing,1000,1,,,,,,,,,0,0,0,0,10,2,42,1,,,,,1053.856325326,None,f,0.5034602309970069,1053.9563820429976,None,1053.356135449998,1053.7730780839993,1054.4896675690034,1054.9742857090023,1054.4896675690034,None,0,0,21,,,13,001,exponential,ybgr,0.35-0.75,2021_May_20_0900,color_judgement_and_subjective_perception,2020.2.10,60.058127019155705,
3,0.35,testing,1000,1,,,,,,,,,0,0,0,0,10,3,43,3,,,,,1055.5740588560002,None,k,0.44985023500339594,1055.673969716001,None,1055.073965137999,1055.490698558002,1056.140680933997,1056.6409659120036,1056.140680933997,None,40,13,0,,,13,001,exponential,ybgr,0.35-0.75,2021_May_20_0900,color_judgement_and_subjective_perception,2020.2.10,60.058127019155705,
1,0.35,testing,1000,1,,,,,,,,,0,0,0,0,11,0,44,1,,,,,1057.2411481529998,None,f,0.8147903220014996,1057.341058995,None,1056.7409262790025,1057.157737292,1058.1745341470014,1058.674579026003,1058.1745341470014,None,0,0,18,,,13,001,exponential,ybgr,0.35-0.75,2021_May_20_0900,color_judgement_and_subjective_perception,2020.2.10,60.058127019155705,
3,0.35,testing,1000,1,,,,,,,,,0,0,0,0,11,1,45,3,,,,,1059.2747744730004,None,k,0.39699051700154087,1059.3748506109987,None,1058.7744764579984,1059.1914257440003,1059.7914128210032,1060.2757444140007,1059.7914128210032,None,37,12,0,,,13,001,exponential,ybgr,0.35-0.75,2021_May_20_0900,color_judgement_and_subjective_perception,2020.2.10,60.058127019155705,
2,0.35,testing,1000,1,,,,,,,,,0,0,0,0,11,2,46,2,,,,,1060.8757757330022,None,j,0.532019066005887,1060.975772345002,None,1060.375601728003,1060.7923383140005,1061.5256971330018,1062.0259980229966,1061.5256971330018,None,0,22,0,,,13,001,exponential,ybgr,0.35-0.75,2021_May_20_0900,color_judgement_and_subjective_perception,2020.2.10,60.058127019155705,
0,0.35,testing,1000,1,,,,,,,,,0,0,0,0,11,3,47,0,,,,,1062.626169493,None,d,0.6216327629954321,1062.726202208003,None,1062.125970385001,1062.543007319,1063.3761205920018,1063.876240710997,1063.3761205920018,None,33,33,0,,,13,001,exponential,ybgr,0.35-0.75,2021_May_20_0900,color_judgement_and_subjective_perception,2020.2.10,60.058127019155705,
0,0.35,testing,1000,1,,,,,,,,,0,0,0,0,12,0,48,0,,,,,1064.4762635750012,None,d,0.7155974519992014,1064.5762449440008,None,1063.9762756889977,1064.3930139739969,1065.3105464249966,1065.8106995979979,1065.3105464249966,None,31,31,0,,,13,001,exponential,ybgr,0.35-0.75,2021_May_20_0900,color_judgement_and_subjective_perception,2020.2.10,60.058127019155705,
2,0.35,testing,1000,1,,,,,,,,,0,0,0,0,12,1,49,2,,,,,1066.4107116329978,None,j,0.4451218539979891,1066.5107233739982,None,1065.9107549280016,1066.32735005,1066.9774934930028,1067.4776560149985,1066.9774934930028,None,0,18,0,,,13,001,exponential,ybgr,0.35-0.75,2021_May_20_0900,color_judgement_and_subjective_perception,2020.2.10,60.058127019155705,
3,0.35,testing,1000,1,,,,,,,,,0,0,0,0,12,2,50,3,,,,,1068.0776251790012,None,f,0.5781609100013156,1068.177711256998,None,1067.577538397003,1067.9944554390022,1068.7777224230013,1069.2779380150023,1068.7777224230013,None,31,10,0,,,13,001,exponential,ybgr,0.35-0.75,2021_May_20_0900,color_judgement_and_subjective_perception,2020.2.10,60.058127019155705,
1,0.35,testing,1000,1,,,,,,,,,0,0,0,0,12,3,51,1,,,,,1069.8623921690014,None,f,0.48156563399970764,1069.962312329997,None,1069.3776337759991,1069.794338724998,1070.4620301239993,1070.9622616069973,1070.4620301239993,None,0,0,10,,,13,001,exponential,ybgr,0.35-0.75,2021_May_20_0900,color_judgement_and_subjective_perception,2020.2.10,60.058127019155705,
2,0.35,testing,1000,1,,,,,,,,,0,0,0,0,13,0,52,2,,,,,1071.5623343319967,None,f,0.5654588659963338,1071.6623749470018,None,1071.0622194530006,1071.4790402470026,1072.2456650800013,1072.7460728200022,1072.2456650800013,None,0,14,0,,,13,001,exponential,ybgr,0.35-0.75,2021_May_20_0900,color_judgement_and_subjective_perception,2020.2.10,60.058127019155705,
1,0.35,testing,1000,1,,,,,,,,,0,0,0,0,13,1,53,1,,,,,1073.3459921039976,None,d,0.6539560800010804,1073.4458868349975,None,1072.8456786509996,1073.2627517250003,1074.1292455939983,1074.6296108629977,1074.1292455939983,None,0,0,7,,,13,001,exponential,ybgr,0.35-0.75,2021_May_20_0900,color_judgement_and_subjective_perception,2020.2.10,60.058127019155705,
3,0.35,testing,1000,1,,,,,,,,,0,0,0,0,13,2,54,3,,,,,1075.2137847609993,None,f,0.362146646999463,1075.3137257729977,None,1074.729497152999,1075.1306442939967,1075.6970601889989,1076.1971597890006,1075.6970601889989,None,26,9,0,,,13,001,exponential,ybgr,0.35-0.75,2021_May_20_0900,color_judgement_and_subjective_perception,2020.2.10,60.058127019155705,
0,0.35,testing,1000,1,,,,,,,,,0,0,0,0,13,3,55,0,,,,,1076.7972751400011,None,j,0.3942583379975986,1076.8974714439973,None,1076.2971866020016,1076.7139091380013,1077.3139762889987,1077.8142709329986,1077.3139762889987,None,25,25,0,,,13,001,exponential,ybgr,0.35-0.75,2021_May_20_0900,color_judgement_and_subjective_perception,2020.2.10,60.058127019155705,
0,0.35,testing,1000,1,,,,,,,,,0,0,0,0,14,0,56,0,,,,,1078.4141496469965,None,f,0.7535486519991537,1078.514242792,None,1077.9141143809975,1078.3308449370015,1079.2975702710028,1079.797803827998,1079.2975702710028,None,25,25,0,,,13,001,exponential,ybgr,0.35-0.75,2021_May_20_0900,color_judgement_and_subjective_perception,2020.2.10,60.058127019155705,
1,0.35,testing,1000,1,,,,,,,,,0,0,0,0,14,1,57,1,,,,,1080.3821385830015,None,f,0.5298060159984743,1080.4820350759983,None,1079.881966836001,1080.298856843001,1081.0318624889987,1081.5321439420004,1081.0318624889987,None,0,0,8,,,13,001,exponential,ybgr,0.35-0.75,2021_May_20_0900,color_judgement_and_subjective_perception,2020.2.10,60.058127019155705,
2,0.35,testing,1000,1,,,,,,,,,0,0,0,0,14,2,58,2,,,,,1082.1324291779965,None,k,0.7635108020040207,1082.2323347019992,None,1081.632151689002,1082.0489962670035,1083.0155423230026,1083.5159077229982,1083.0155423230026,None,0,13,0,,,13,001,exponential,ybgr,0.35-0.75,2021_May_20_0900,color_judgement_and_subjective_perception,2020.2.10,60.058127019155705,
3,0.35,testing,1000,1,,,,,,,,,0,0,0,0,14,3,59,3,,,,,1084.1159802399998,None,f,0.5558077540044906,1084.2160469480004,None,1083.6157683220008,1084.0325516800003,1084.7992356910036,1085.2835167869998,1084.7992356910036,None,28,9,0,,,13,001,exponential,ybgr,0.35-0.75,2021_May_20_0900,color_judgement_and_subjective_perception,2020.2.10,60.058127019155705,
1,0.35,testing,1000,1,,,,,,,,,0,0,0,0,15,0,60,1,,,,,1085.8836504319988,None,f,0.5401786619986524,1085.9836828749976,None,1085.3835864959983,1085.8004053699988,1086.5504206729966,1087.0505993280021,1086.5504206729966,None,0,0,8,,,13,001,exponential,ybgr,0.35-0.75,2021_May_20_0900,color_judgement_and_subjective_perception,2020.2.10,60.058127019155705,
2,0.35,testing,1000,1,,,,,,,,,0,0,0,0,15,1,61,2,,,,,1087.6507079500007,None,f,0.5330695880038547,1087.750712576999,None,1087.1504366759982,1087.567378754,1088.3006809060025,1088.8006403530017,1088.3006809060025,None,0,13,0,,,13,001,exponential,ybgr,0.35-0.75,2021_May_20_0900,color_judgement_and_subjective_perception,2020.2.10,60.058127019155705,
3,0.35,testing,1000,1,,,,,,,,,0,0,0,0,15,2,62,3,,,,,1089.4008814850022,None,d,0.38282017999881646,1089.5009310859969,None,1088.9007808660026,1089.3175160609971,1089.901747926,1090.4018866019978,1089.901747926,None,30,10,0,,,13,001,exponential,ybgr,0.35-0.75,2021_May_20_0900,color_judgement_and_subjective_perception,2020.2.10,60.058127019155705,
0,0.35,testing,1000,1,,,,,,,,,0,0,0,0,15,3,63,0,,,,,1091.0020318789975,None,j,0.2697314370016102,1091.1021087420013,None,1090.501869986001,1090.9185889419969,1091.401919126998,1091.9021580629997,1091.401919126998,None,29,29,0,,,13,001,exponential,ybgr,0.35-0.75,2021_May_20_0900,color_judgement_and_subjective_perception,2020.2.10,60.058127019155705,
1,0.35,testing,1000,1,,,,,,,,,0,0,0,0,16,0,64,1,,,,,1092.502287108,None,f,0.5375422380020609,1092.6022985719974,None,1092.002082425999,1092.4190206249987,1093.1688372019998,1093.6690313549989,1093.1688372019998,None,0,0,9,,,13,001,exponential,ybgr,0.35-0.75,2021_May_20_0900,color_judgement_and_subjective_perception,2020.2.10,60.058127019155705,
2,0.35,testing,1000,1,,,,,,,,,0,0,0,0,16,1,65,2,,,,,1094.2691444390002,None,f,0.34665356199548114,1094.3691843229972,None,1093.7688729669972,1094.185756822997,1094.7356471520034,1095.2200266660002,1094.7356471520034,None,0,16,0,,,13,001,exponential,ybgr,0.35-0.75,2021_May_20_0900,color_judgement_and_subjective_perception,2020.2.10,60.058127019155705,
0,0.35,testing,1000,1,,,,,,,,,0,0,0,0,16,2,66,0,,,,,1095.819971185003,None,f,0.5316158450004878,1095.920207272,None,1095.320138709998,1095.7368196969983,1096.4701374880024,1096.9704218909974,1096.4701374880024,None,31,31,0,,,13,001,exponential,ybgr,0.35-0.75,2021_May_20_0900,color_judgement_and_subjective_perception,2020.2.10,60.058127019155705,
3,0.35,testing,1000,1,,,,,,,,,0,0,0,0,16,3,67,3,,,,,1097.5706499799999,None,d,0.40519454199966276,1097.6706256670004,None,1097.0704041619974,1097.4871079329969,1098.1036263209971,1098.6038137830037,1098.1036263209971,None,34,11,0,,,13,001,exponential,ybgr,0.35-0.75,2021_May_20_0900,color_judgement_and_subjective_perception,2020.2.10,60.058127019155705,
3,0.35,testing,1000,1,,,,,,,,,0,0,0,0,17,0,68,3,,,,,1099.204013306,None,j,0.46784871900308644,1099.3039922780008,None,1098.7038154960028,1099.1207200319986,1099.8037316280024,1100.288432112,1099.8037316280024,None,36,12,0,,,13,001,exponential,ybgr,0.35-0.75,2021_May_20_0900,color_judgement_and_subjective_perception,2020.2.10,60.058127019155705,
1,0.35,testing,1000,1,,,,,,,,,0,0,0,0,17,1,69,1,,,,,1100.8883673879973,None,f,0.5273030090029351,1100.9884225770002,None,1100.3882934119974,1100.805009317999,1101.5383548309983,1102.0386234219986,1101.5383548309983,None,0,0,11,,,13,001,exponential,ybgr,0.35-0.75,2021_May_20_0900,color_judgement_and_subjective_perception,2020.2.10,60.058127019155705,
0,0.35,testing,1000,1,,,,,,,,,0,0,0,0,17,2,70,0,,,,,1102.638762937997,None,j,0.37686854699859396,1102.7389208509994,None,1102.1386025320026,1102.555460771,1103.138578113998,1103.6387900420013,1103.138578113998,None,34,34,0,,,13,001,exponential,ybgr,0.35-0.75,2021_May_20_0900,color_judgement_and_subjective_perception,2020.2.10,60.058127019155705,
2,0.35,testing,1000,1,,,,,,,,,0,0,0,0,17,3,71,2,,,,,1104.2390363619998,None,d,0.47290878299827455,1104.3389344009993,None,1103.7388736689973,1104.1556813580028,1104.833308606001,1105.3232606620004,1104.833308606001,None,0,21,0,,,13,001,exponential,ybgr,0.35-0.75,2021_May_20_0900,color_judgement_and_subjective_perception,2020.2.10,60.058127019155705,
2,0.35,testing,1000,1,,,,,,,,,0,0,0,0,18,0,72,2,,,,,1105.9233835549967,None,f,0.48446529799548443,1106.023342530003,None,1105.4231740920004,1105.8400440190017,1106.5399380840026,1107.0402816880014,1106.5399380840026,None,0,23,0,,,13,001,exponential,ybgr,0.35-0.75,2021_May_20_0900,color_judgement_and_subjective_perception,2020.2.10,60.058127019155705,
3,0.35,testing,1000,1,,,,,,,,,0,0,0,0,18,1,73,3,,,,,1107.6403647120023,None,j,0.41536143900157185,1107.740404891003,None,1107.1402166640037,1107.5569965429968,1108.1735468879997,1108.6736110650018,1108.1735468879997,None,40,13,0,,,13,001,exponential,ybgr,0.35-0.75,2021_May_20_0900,color_judgement_and_subjective_perception,2020.2.10,60.058127019155705,
1,0.35,testing,1000,1,,,,,,,,,0,0,0,0,18,2,74,1,,,,,1109.2739481769968,None,f,0.7337789560042438,1109.3740130540027,None,1108.7737381059997,1109.1906028140002,1110.1246230140023,1110.6247920110036,1110.1246230140023,None,0,0,13,,,13,001,exponential,ybgr,0.35-0.75,2021_May_20_0900,color_judgement_and_subjective_perception,2020.2.10,60.058127019155705,
0,0.35,testing,1000,1,,,,,,,,,0,0,0,0,18,3,75,0,,,,,1111.2249378889974,None,j,0.8548279630049365,1111.3249906700003,None,1110.7247797590026,1111.1416069569968,1112.2084029800026,1112.7087077120013,1112.2084029800026,None,38,38,0,,,13,001,exponential,ybgr,0.35-0.75,2021_May_20_0900,color_judgement_and_subjective_perception,2020.2.10,60.058127019155705,
3,0.35,testing,1000,1,,,,,,,,,0,0,0,0,19,0,76,3,,,,,1113.3086358869987,None,k,0.44325912299973425,1113.4085982000033,None,1112.8084651329991,1113.2252083440035,1113.8751558829972,1114.3754720740035,1113.8751558829972,None,42,14,0,,,13,001,exponential,ybgr,0.35-0.75,2021_May_20_0900,color_judgement_and_subjective_perception,2020.2.10,60.058127019155705,
2,0.35,testing,1000,1,,,,,,,,,0,0,0,0,19,1,77,2,,,,,1114.9597018440036,None,None,-1,1115.0596816760008,None,1114.4753874710004,1114.8764352549988,1115.9763372590023,1116.476613275001,1115.9763372590023,None,0,25,0,,,13,001,exponential,ybgr,0.35-0.75,2021_May_20_0900,color_judgement_and_subjective_perception,2020.2.10,60.058127019155705,
1,0.35,testing,1000,1,,,,,,,,,0,0,0,0,19,2,78,1,,,,,1117.0768175720004,None,k,0.45107781200204045,1117.176765438002,None,1116.5766070690006,1116.9933386420016,1117.660000734002,1118.160173657001,1117.660000734002,None,0,0,12,,,13,001,exponential,ybgr,0.35-0.75,2021_May_20_0900,color_judgement_and_subjective_perception,2020.2.10,60.058127019155705,
0,0.35,testing,1000,1,,,,,,,,,0,0,0,0,19,3,79,0,,,,,1118.7602818489977,None,j,0.5516442160005681,1118.860205185003,None,1118.2601701859967,1118.6769715249975,1119.4436346110015,1119.9280297649966,1119.4436346110015,None,41,41,0,,,13,001,exponential,ybgr,0.35-0.75,2021_May_20_0900,color_judgement_and_subjective_perception,2020.2.10,60.058127019155705,
1,0.35,testing,1000,1,,,,,,,,,0,0,0,0,20,0,80,1,,,,,1120.5281398480001,None,f,0.5198190240043914,1120.628025883998,None,1120.028021979997,1120.4447239919973,1121.1778115600027,1121.6781667320029,1121.1778115600027,None,0,0,13,,,13,001,exponential,ybgr,0.35-0.75,2021_May_20_0900,color_judgement_and_subjective_perception,2020.2.10,60.058127019155705,
0,0.35,testing,1000,1,,,,,,,,,0,0,0,0,20,1,81,0,,,,,1122.2783401339984,None,j,0.7292052449993207,1122.3786097580014,None,1121.7782865560002,1122.1950262129976,1123.1282821119967,1123.6285883399978,1123.1282821119967,None,42,42,0,,,13,001,exponential,ybgr,0.35-0.75,2021_May_20_0900,color_judgement_and_subjective_perception,2020.2.10,60.058127019155705,
2,0.35,testing,1000,1,,,,,,,,,0,0,0,0,20,2,82,2,,,,,1124.228646648,None,d,0.6270930059981765,1124.328757221003,None,1123.7283940740017,1124.1453138720026,1124.9794731340007,1125.4796304530028,1124.9794731340007,None,0,29,0,,,13,001,exponential,ybgr,0.35-0.75,2021_May_20_0900,color_judgement_and_subjective_perception,2020.2.10,60.058127019155705,
3,0.35,testing,1000,1,,,,,,,,,0,0,0,0,20,3,83,3,,,,,1126.079685220997,None,k,0.512320533998718,1126.179566248,None,1125.579537042002,1125.9963399710032,1126.713000691001,1127.213206927001,1126.713000691001,None,46,15,0,,,13,001,exponential,ybgr,0.35-0.75,2021_May_20_0900,color_judgement_and_subjective_perception,2020.2.10,60.058127019155705,
0,0.35,testing,1000,1,,,,,,,,,0,0,0,0,21,0,84,0,,,,,1127.8133459090022,None,j,0.7545554600001196,1127.9133303449998,None,1127.313236820999,1127.730267731,1128.696601869,1129.1967942550036,1128.696601869,None,44,44,0,,,13,001,exponential,ybgr,0.35-0.75,2021_May_20_0900,color_judgement_and_subjective_perception,2020.2.10,60.058127019155705,
3,0.35,testing,1000,1,,,,,,,,,0,0,0,0,21,1,85,3,,,,,1129.7968843190029,None,k,0.6185085250035627,1129.881311999001,None,1129.2968818090012,1129.713581613003,1130.5310091100037,1131.0313412809992,1130.5310091100037,None,45,15,0,,,13,001,exponential,ybgr,0.35-0.75,2021_May_20_0900,color_judgement_and_subjective_perception,2020.2.10,60.058127019155705,
2,0.35,testing,1000,1,,,,,,,,,0,0,0,0,21,2,86,2,,,,,1131.6312618110023,None,j,0.336356990999775,1131.7314998739967,None,1131.1312158779983,1131.5477585280023,1132.0980779739984,1132.5983944929976,1132.0980779739984,None,0,30,0,,,13,001,exponential,ybgr,0.35-0.75,2021_May_20_0900,color_judgement_and_subjective_perception,2020.2.10,60.058127019155705,
1,0.35,testing,1000,1,,,,,,,,,0,0,0,0,21,3,87,1,,,,,1133.1983778260037,None,f,0.5296122569998261,1133.298235178001,None,1132.6980707519979,1133.114802062999,1133.8483927139969,1134.3485557520034,1133.8483927139969,None,0,0,11,,,13,001,exponential,ybgr,0.35-0.75,2021_May_20_0900,color_judgement_and_subjective_perception,2020.2.10,60.058127019155705,
0,0.35,testing,1000,1,,,,,,,,,0,0,0,0,22,0,88,0,,,,,1134.9327268019988,None,d,0.5150511739993817,1135.032829073003,None,1134.4482289560037,1134.849760101999,1135.5659394000031,1136.0661446250015,1135.5659394000031,None,43,43,0,,,13,001,exponential,ybgr,0.35-0.75,2021_May_20_0900,color_judgement_and_subjective_perception,2020.2.10,60.058127019155705,
1,0.35,testing,1000,1,,,,,,,,,0,0,0,0,22,1,89,1,,,,,1136.666275073003,None,f,0.6774249719965155,1136.7663355609984,None,1136.1661791560036,1136.5829919460011,1137.4663412869995,1137.9665613160032,1137.4663412869995,None,0,0,8,,,13,001,exponential,ybgr,0.35-0.75,2021_May_20_0900,color_judgement_and_subjective_perception,2020.2.10,60.058127019155705,
2,0.35,testing,1000,1,,,,,,,,,0,0,0,0,22,2,90,2,,,,,1138.566636966003,None,j,0.6733087640022859,1138.6665456359988,None,1138.0664795859993,1138.4831152140032,1139.3666096009983,1139.8515293620003,1139.3666096009983,None,0,27,0,,,13,001,exponential,ybgr,0.35-0.75,2021_May_20_0900,color_judgement_and_subjective_perception,2020.2.10,60.058127019155705,
3,0.35,testing,1000,1,,,,,,,,,0,0,0,0,22,3,91,3,,,,,1140.4509937409966,None,k,0.300861266994616,1140.5509805850015,None,1139.9509275719975,1140.3678118489988,1140.8840947650024,1141.3844599709992,1140.8840947650024,None,38,13,0,,,13,001,exponential,ybgr,0.35-0.75,2021_May_20_0900,color_judgement_and_subjective_perception,2020.2.10,60.058127019155705,
3,0.35,testing,1000,1,,,,,,,,,0,0,0,0,23,0,92,3,,,,,1141.984609594998,None,k,0.6070386979990872,1142.0847729419984,None,1141.484430892,1141.9011213539998,1142.7178726540005,1143.2180532600032,1142.7178726540005,None,36,12,0,,,13,001,exponential,ybgr,0.35-0.75,2021_May_20_0900,color_judgement_and_subjective_perception,2020.2.10,60.058127019155705,
1,0.35,testing,1000,1,,,,,,,,,0,0,0,0,23,1,93,1,,,,,1143.8181921840005,None,f,0.3976645290022134,1143.9181816540004,None,1143.318060038997,1143.7349529659987,1144.334855326997,1144.833725659002,1144.334855326997,None,0,0,3,,,13,001,exponential,ybgr,0.35-0.75,2021_May_20_0900,color_judgement_and_subjective_perception,2020.2.10,60.058127019155705,
2,0.35,testing,1000,1,,,,,,,,,0,0,0,0,23,2,94,2,,,,,1145.4192347110002,None,k,0.5564879259982263,1145.5193435570036,None,1144.919198591997,1145.3361358399998,1146.1025359720006,1146.6027949929994,1146.1025359720006,None,0,22,0,,,13,001,exponential,ybgr,0.35-0.75,2021_May_20_0900,color_judgement_and_subjective_perception,2020.2.10,60.058127019155705,
0,0.35,testing,1000,1,,,,,,,,,0,0,0,0,23,3,95,0,,,,,1147.2030013749973,None,k,0.6047903500002576,1147.3030929689994,None,1146.7028607500033,1147.1195637170022,1147.9362596139981,1148.4362729249988,1147.9362596139981,None,37,37,0,,,13,001,exponential,ybgr,0.35-0.75,2021_May_20_0900,color_judgement_and_subjective_perception,2020.2.10,60.058127019155705,
2,0.35,testing,1000,1,,,,,,,,,0,0,0,0,,,,,0,0,0,2,1159.9740518129984,None,None,-1,1160.0741344380003,None,1159.4897005579987,1159.8905770409983,1160.9947429890017,1161.490896549003,1160.9947429890017,None,0,19,0,1148.5531239789998,None,13,001,exponential,ybgr,0.35-0.75,2021_May_20_0900,color_judgement_and_subjective_perception,2020.2.10,60.058127019155705,
3,0.35,testing,1000,1,,,,,,,,,0,0,0,0,,,,,0,1,1,3,1162.091122329999,None,f,0.4447687930005486,1162.191089054002,None,1161.5906914000007,1162.0077427680008,1162.659258104999,1163.1578782540018,1162.659258104999,None,32,11,0,None,None,13,001,exponential,ybgr,0.35-0.75,2021_May_20_0900,color_judgement_and_subjective_perception,2020.2.10,60.058127019155705,
0,0.35,testing,1000,1,,,,,,,,,0,0,0,0,,,,,0,2,2,0,1163.7578703000036,None,j,0.6179927169941948,1163.8578513210014,None,1163.2575420089997,1163.6742891090034,1164.5078148129978,1164.9922905369967,1164.5078148129978,None,39,39,0,None,None,13,001,exponential,ybgr,0.35-0.75,2021_May_20_0900,color_judgement_and_subjective_perception,2020.2.10,60.058127019155705,
1,0.35,testing,1000,1,,,,,,,,,0,0,0,0,,,,,0,3,3,1,1165.5922509939992,None,f,0.5595667019952089,1165.6922480840003,None,1165.0920160070018,1165.5088881100019,1166.2772225529989,1166.7757679889983,1166.2772225529989,None,0,0,3,None,None,13,001,exponential,ybgr,0.35-0.75,2021_May_20_0900,color_judgement_and_subjective_perception,2020.2.10,60.058127019155705,
0,0.35,testing,1000,1,,,,,,,,,0,0,0,0,,,,,1,0,4,0,1167.3761003399995,None,d,0.7198966670039226,1167.475935538001,None,1166.8755103160001,1167.2926303549975,1168.2258667290007,1168.726208838998,1168.2258667290007,None,40,40,0,None,None,13,001,exponential,ybgr,0.35-0.75,2021_May_20_0900,color_judgement_and_subjective_perception,2020.2.10,60.058127019155705,
2,0.35,testing,1000,1,,,,,,,,,0,0,0,0,,,,,1,1,5,2,1169.326289894001,None,f,0.5454302050056867,1169.4263203989976,None,1168.8259744370007,1169.2428933389965,1169.9952915589965,1170.4937568280002,1169.9952915589965,None,0,21,0,None,None,13,001,exponential,ybgr,0.35-0.75,2021_May_20_0900,color_judgement_and_subjective_perception,2020.2.10,60.058127019155705,
0,0.35,testing,1000,1,,,,,,,,,0,0,0,0,,,,,1,2,6,0,1171.0938906470037,None,j,0.6416160840017255,1171.1942423849978,None,1170.5936554090003,1171.010682330998,1171.8607059450005,1172.3610282700029,1171.8607059450005,None,37,37,0,None,None,13,001,exponential,ybgr,0.35-0.75,2021_May_20_0900,color_judgement_and_subjective_perception,2020.2.10,60.058127019155705,
3,0.35,testing,1000,1,,,,,,,,,0,0,0,0,,,,,1,3,7,3,1172.9608963680002,None,k,0.5030213780046324,1173.0608135400034,None,1172.4607081520007,1172.8776703039985,1173.5959715260033,1174.094499275001,1173.5959715260033,None,31,10,0,None,None,13,001,exponential,ybgr,0.35-0.75,2021_May_20_0900,color_judgement_and_subjective_perception,2020.2.10,60.058127019155705,
1,0.35,testing,1000,1,,,,,,,,,0,0,0,0,,,,,2,0,8,1,1174.694485246997,None,f,0.44921965100365924,1174.7945971049994,None,1174.1942109130032,1174.6112830979982,1175.2620823830002,1175.762207644002,1175.2620823830002,None,0,0,0,None,None,13,001,exponential,ybgr,0.35-0.75,2021_May_20_0900,color_judgement_and_subjective_perception,2020.2.10,60.058127019155705,
0,0.35,testing,1000,1,,,,,,,,,0,0,0,0,,,,,2,1,9,0,1176.3622545749968,None,j,0.701629461000266,1176.4622188229987,None,1175.8618988739981,1176.2789032419969,1177.1975944369988,1177.6958820979999,1177.1975944369988,None,37,37,0,None,None,13,001,exponential,ybgr,0.35-0.75,2021_May_20_0900,color_judgement_and_subjective_perception,2020.2.10,60.058127019155705,
1,0.35,testing,1000,1,,,,,,,,,0,0,0,0,,,,,2,2,10,1,1178.2958717579968,None,f,0.7679765580032836,1178.3958732969986,None,1177.7957338060005,1178.212582745,1179.197655242002,1179.6960020240003,1179.197655242002,None,0,0,0,None,None,13,001,exponential,ybgr,0.35-0.75,2021_May_20_0900,color_judgement_and_subjective_perception,2020.2.10,60.058127019155705,
2,0.35,testing,1000,1,,,,,,,,,0,0,0,0,,,,,2,3,11,2,1180.2804787869973,None,j,0.615420838999853,1180.3803946970002,None,1179.7958607179971,1180.1970125290027,1181.0136310870002,1181.5137732970034,1181.0136310870002,None,0,18,0,None,None,13,001,exponential,ybgr,0.35-0.75,2021_May_20_0900,color_judgement_and_subjective_perception,2020.2.10,60.058127019155705,
3,0.35,testing,1000,1,,,,,,,,,0,0,0,0,,,,,3,0,12,3,1182.1140896029974,None,k,0.5497990420044516,1182.2140111319968,None,1181.6135899,1182.030686033002,1182.7808852980015,1183.2808606769977,1182.7808852980015,None,25,8,0,None,None,13,001,exponential,ybgr,0.35-0.75,2021_May_20_0900,color_judgement_and_subjective_perception,2020.2.10,60.058127019155705,
2,0.35,testing,1000,1,,,,,,,,,0,0,0,0,,,,,3,1,13,2,1183.880835338001,None,d,0.6307610840012785,1183.9810529840033,None,1183.3807051679978,1183.7975845890032,1184.6323404290015,1185.1152991780036,1184.6323404290015,None,0,15,0,None,None,13,001,exponential,ybgr,0.35-0.75,2021_May_20_0900,color_judgement_and_subjective_perception,2020.2.10,60.058127019155705,
1,0.35,testing,1000,1,,,,,,,,,0,0,0,0,,,,,3,2,14,1,1185.71520436,None,j,0.6924995379959,1185.8153269640025,None,1185.2151968399994,1185.6320033660013,1186.531908167999,1187.0322858200016,1186.531908167999,None,0,0,0,None,None,13,001,exponential,ybgr,0.35-0.75,2021_May_20_0900,color_judgement_and_subjective_perception,2020.2.10,60.058127019155705,
2,0.35,testing,1000,1,,,,,,,,,0,0,0,0,,,,,3,3,15,2,1187.632376677997,None,f,0.6634017670003232,1187.7324284459974,None,1187.1320640589984,1187.5490149379984,1188.4156378640037,1188.9155385409977,1188.4156378640037,None,0,14,0,None,None,13,001,exponential,ybgr,0.35-0.75,2021_May_20_0900,color_judgement_and_subjective_perception,2020.2.10,60.058127019155705,
1,0.35,testing,1000,1,,,,,,,,,0,0,0,0,,,,,4,0,16,1,1189.5158014499975,None,f,0.3317169669971918,1189.6161279459993,None,1189.0155077300005,1189.4324974479969,1189.9683745099974,1190.4669156730015,1189.9683745099974,None,0,0,1,None,None,13,001,exponential,ybgr,0.35-0.75,2021_May_20_0900,color_judgement_and_subjective_perception,2020.2.10,60.058127019155705,
3,0.35,testing,1000,1,,,,,,,,,0,0,0,0,,,,,4,1,17,3,1191.0669315030027,None,f,0.5248390350025147,1191.1670012090035,None,1190.5667252319981,1190.9835886189976,1191.7185014409988,1192.217134421,1191.7185014409988,None,21,7,0,None,None,13,001,exponential,ybgr,0.35-0.75,2021_May_20_0900,color_judgement_and_subjective_perception,2020.2.10,60.058127019155705,
1,0.35,testing,1000,1,,,,,,,,,0,0,0,0,,,,,4,2,18,1,1192.8171852779997,None,j,0.5505782399995951,1192.9171950910022,None,1192.3171507599982,1192.7338233769988,1193.5002463920027,1194.0008485090002,1193.5002463920027,None,0,0,1,None,None,13,001,exponential,ybgr,0.35-0.75,2021_May_20_0900,color_judgement_and_subjective_perception,2020.2.10,60.058127019155705,
0,0.35,testing,1000,1,,,,,,,,,0,0,0,0,,,,,4,3,19,0,1194.600924033999,None,j,0.5911050329959835,1194.7007097829992,None,1194.1005796410027,1194.517613805001,1195.3182272710037,1195.818559416999,1195.3182272710037,None,34,34,0,None,None,13,001,exponential,ybgr,0.35-0.75,2021_May_20_0900,color_judgement_and_subjective_perception,2020.2.10,60.058127019155705,
0,0.35,testing,1000,1,,,,,,,,,0,0,0,0,,,,,5,0,20,0,1196.4185370170017,None,d,0.4452910520049045,1196.5185642319993,None,1195.9182705389976,1196.3352251820033,1196.986958606998,1197.485565518,1196.986958606998,None,36,36,0,None,None,13,001,exponential,ybgr,0.35-0.75,2021_May_20_0900,color_judgement_and_subjective_perception,2020.2.10,60.058127019155705,
1,0.35,testing,1000,1,,,,,,,,,0,0,0,0,,,,,5,1,21,1,1198.085391476001,None,f,0.5143536600007792,1198.1854984029997,None,1197.5854604979977,1198.0022641760006,1198.7188480569966,1199.2190078089989,1198.7188480569966,None,0,0,1,None,None,13,001,exponential,ybgr,0.35-0.75,2021_May_20_0900,color_judgement_and_subjective_perception,2020.2.10,60.058127019155705,
2,0.35,testing,1000,1,,,,,,,,,0,0,0,0,,,,,5,2,22,2,1199.8191957410017,None,j,0.6765029489979497,1199.9033213560033,None,1199.3188866359997,1199.7358046829977,1200.603249189,1201.1033631579994,1200.603249189,None,0,16,0,None,None,13,001,exponential,ybgr,0.35-0.75,2021_May_20_0900,color_judgement_and_subjective_perception,2020.2.10,60.058127019155705,
1,0.35,testing,1000,1,,,,,,,,,0,0,0,0,,,,,5,3,23,1,1201.7034959130033,None,f,0.7122321279966854,1201.8036677810014,None,1201.20334593,1201.6201799699993,1202.5369841049978,1203.0371064420033,1202.5369841049978,None,0,0,0,None,None,13,001,exponential,ybgr,0.35-0.75,2021_May_20_0900,color_judgement_and_subjective_perception,2020.2.10,60.058127019155705,
0,0.35,testing,1000,1,,,,,,,,,0,0,0,0,,,,,6,0,24,0,1203.6370648899974,None,j,0.52273799500108,1203.7371074519979,None,1203.1369230150012,1203.553834765,1204.2888354940005,1204.7872876980036,1204.2888354940005,None,31,31,0,None,None,13,001,exponential,ybgr,0.35-0.75,2021_May_20_0900,color_judgement_and_subjective_perception,2020.2.10,60.058127019155705,
1,0.35,testing,1000,1,,,,,,,,,0,0,0,0,,,,,6,1,25,1,1205.3716736560018,None,f,0.5483143749952433,1205.4715050480008,None,1204.8754220699993,1205.288418311,1206.0401846169989,1206.5384002060018,1206.0401846169989,None,0,0,0,None,None,13,001,exponential,ybgr,0.35-0.75,2021_May_20_0900,color_judgement_and_subjective_perception,2020.2.10,60.058127019155705,
1,0.35,testing,1000,1,,,,,,,,,0,0,0,0,,,,,6,2,26,1,1207.1387004310018,None,f,0.6132770719996188,1207.2385561970004,None,1206.6383174840012,1207.055313550998,1207.8718703039995,1208.3720453709975,1207.8718703039995,None,0,0,0,None,None,13,001,exponential,ybgr,0.35-0.75,2021_May_20_0900,color_judgement_and_subjective_perception,2020.2.10,60.058127019155705,
3,0.35,testing,1000,1,,,,,,,,,0,0,0,0,,,,,6,3,27,3,1208.9719611249966,None,f,0.435575796997,1209.0722381000014,None,1208.4718252759994,1208.8888331630005,1209.5405079050033,1210.0232869429965,1209.5405079050033,None,16,5,0,None,None,13,001,exponential,ybgr,0.35-0.75,2021_May_20_0900,color_judgement_and_subjective_perception,2020.2.10,60.058127019155705,
1,0.35,testing,1000,1,,,,,,,,,0,0,0,0,,,,,7,0,28,1,1210.6232941729977,None,f,0.4806720630003838,1210.7231729449995,None,1210.1230713530022,1210.5399162760004,1211.2255874879993,1211.7233168370003,1211.2255874879993,None,0,0,0,None,None,13,001,exponential,ybgr,0.35-0.75,2021_May_20_0900,color_judgement_and_subjective_perception,2020.2.10,60.058127019155705,
0,0.35,testing,1000,1,,,,,,,,,0,0,0,0,,,,,7,1,29,0,1212.3234345719975,None,j,0.596152580998023,1212.4236863059996,None,1211.8233187299993,1212.2403043340018,1213.0416985580014,1213.540313751997,1213.0416985580014,None,27,27,0,None,None,13,001,exponential,ybgr,0.35-0.75,2021_May_20_0900,color_judgement_and_subjective_perception,2020.2.10,60.058127019155705,
2,0.35,testing,1000,1,,,,,,,,,0,0,0,0,,,,,7,2,30,2,1214.1404750470028,None,f,0.3792098160047317,1214.2406112140015,None,1213.6402250469982,1214.0570259379965,1214.640455105,1215.124814718998,1214.640455105,None,0,7,0,None,None,13,001,exponential,ybgr,0.35-0.75,2021_May_20_0900,color_judgement_and_subjective_perception,2020.2.10,60.058127019155705,
2,0.35,testing,1000,1,,,,,,,,,0,0,0,0,,,,,7,3,31,2,1215.7247903280004,None,j,0.35503268200409366,1215.8248149349965,None,1215.224547291,1215.6415493460008,1216.209723726999,1216.7082590350037,1216.209723726999,None,0,9,0,None,None,13,001,exponential,ybgr,0.35-0.75,2021_May_20_0900,color_judgement_and_subjective_perception,2020.2.10,60.058127019155705,
2,0.35,testing,1000,1,,,,,,,,,0,0,0,0,,,,,8,0,32,2,1217.308460223001,None,f,0.5233218600042164,1217.4085193930005,None,1216.808101331997,1217.2249971519996,1217.960220891,1218.4585903769985,1217.960220891,None,0,7,0,None,None,13,001,exponential,ybgr,0.35-0.75,2021_May_20_0900,color_judgement_and_subjective_perception,2020.2.10,60.058127019155705,
0,0.35,testing,1000,1,,,,,,,,,0,0,0,0,,,,,8,1,33,0,1219.0585292949982,None,j,0.5010648740062607,1219.1587845649992,None,1218.5584054200008,1218.9752684580017,1219.6922424790027,1220.176342038998,1219.6922424790027,None,26,26,0,None,None,13,001,exponential,ybgr,0.35-0.75,2021_May_20_0900,color_judgement_and_subjective_perception,2020.2.10,60.058127019155705,
2,0.35,testing,1000,1,,,,,,,,,0,0,0,0,,,,,8,2,34,2,1220.7764483729989,None,j,0.7034347660010098,1220.8764200079968,None,1220.276022555001,1220.6929429619995,1221.6113816680008,1222.1100106599988,1221.6113816680008,None,0,6,0,None,None,13,001,exponential,ybgr,0.35-0.75,2021_May_20_0900,color_judgement_and_subjective_perception,2020.2.10,60.058127019155705,
3,0.35,testing,1000,1,,,,,,,,,0,0,0,0,,,,,8,3,35,3,1222.710161627001,None,f,0.7776242580002872,1222.8101164929976,None,1222.2097455460025,1222.626791898998,1223.6117320060002,1224.110184625999,1223.6117320060002,None,11,4,0,None,None,13,001,exponential,ybgr,0.35-0.75,2021_May_20_0900,color_judgement_and_subjective_perception,2020.2.10,60.058127019155705,
2,0.35,testing,1000,1,,,,,,,,,0,0,0,0,,,,,9,0,36,2,1224.7103498860015,None,j,0.4175139310027589,1224.8103130300005,None,1224.2101388969968,1224.6271440540004,1225.2471892789981,1225.7445999089978,1225.2471892789981,None,0,5,0,None,None,13,001,exponential,ybgr,0.35-0.75,2021_May_20_0900,color_judgement_and_subjective_perception,2020.2.10,60.058127019155705,
1,0.35,testing,1000,1,,,,,,,,,0,0,0,0,,,,,9,1,37,1,1226.3447429809967,None,k,0.6871697609967669,1226.4446755509998,None,1225.8444146059992,1226.2611630289975,1227.1632909239997,1227.6617498589985,1227.1632909239997,None,0,0,0,None,None,13,001,exponential,ybgr,0.35-0.75,2021_May_20_0900,color_judgement_and_subjective_perception,2020.2.10,60.058127019155705,
1,0.35,testing,1000,1,,,,,,,,,0,0,0,0,,,,,9,2,38,1,1228.261605323998,None,j,0.5701773109976784,1228.361658052003,None,1227.7615178460037,1228.178232641003,1228.9616640989989,1229.4619136129986,1228.9616640989989,None,0,0,0,None,None,13,001,exponential,ybgr,0.35-0.75,2021_May_20_0900,color_judgement_and_subjective_perception,2020.2.10,60.058127019155705,
1,0.35,testing,1000,1,,,,,,,,,0,0,0,0,,,,,9,3,39,1,1230.0295027440006,None,f,0.32230336499924306,1230.129552780003,None,1229.5617912399975,1229.946325388999,1230.4814099299983,1230.9796338789965,1230.4814099299983,None,0,0,0,None,None,13,001,exponential,ybgr,0.35-0.75,2021_May_20_0900,color_judgement_and_subjective_perception,2020.2.10,60.058127019155705,
0,0.35,testing,1000,1,,,,,,,,,0,0,0,0,,,,,10,0,40,0,1231.5796186299995,None,j,0.684804123993672,1231.6710428880033,None,1231.0794956949976,1231.4963304260018,1232.3816482490001,1232.8801363789971,1232.3816482490001,None,26,26,0,None,None,13,001,exponential,ybgr,0.35-0.75,2021_May_20_0900,color_judgement_and_subjective_perception,2020.2.10,60.058127019155705,
2,0.35,testing,1000,1,,,,,,,,,0,0,0,0,,,,,10,1,41,2,1233.4135095329984,None,f,0.41150234900123905,1233.480318531998,None,1232.9797863670028,1233.363421187998,1233.9105826430023,1234.3799965630024,1233.9105826430023,None,0,3,0,None,None,13,001,exponential,ybgr,0.35-0.75,2021_May_20_0900,color_judgement_and_subjective_perception,2020.2.10,60.058127019155705,
3,0.35,testing,1000,1,,,,,,,,,0,0,0,0,,,,,10,2,42,3,1234.9644828189994,None,d,0.49129131099471124,1235.0645420660003,None,1234.4800085489987,1234.881584374998,1235.5809485439968,1236.081186882002,1235.5809485439968,None,13,4,0,None,None,13,001,exponential,ybgr,0.35-0.75,2021_May_20_0900,color_judgement_and_subjective_perception,2020.2.10,60.058127019155705,
1,0.35,testing,1000,1,,,,,,,,,0,0,0,0,,,,,10,3,43,1,1236.681219981001,None,f,0.36656811900320463,1236.7813120650026,None,1236.1809804389995,1236.597903488997,1237.1668937869981,1237.6649179489978,1237.1668937869981,None,0,0,3,None,None,13,001,exponential,ybgr,0.35-0.75,2021_May_20_0900,color_judgement_and_subjective_perception,2020.2.10,60.058127019155705,
3,0.35,testing,1000,1,,,,,,,,,0,0,0,0,,,,,11,0,44,3,1238.2649091429994,None,f,0.40695895600219956,1238.3648775059992,None,1237.7646819849979,1238.1815740599995,1238.799793252998,1239.2984183040026,1238.799793252998,None,14,5,0,None,None,13,001,exponential,ybgr,0.35-0.75,2021_May_20_0900,color_judgement_and_subjective_perception,2020.2.10,60.058127019155705,
3,0.35,testing,1000,1,,,,,,,,,0,0,0,0,,,,,11,1,45,3,1239.8831601619968,None,j,0.4290285140014021,1239.9828127599976,None,1239.3982234779978,1239.8150493349967,1240.4325306820028,1240.932698456003,1240.4325306820028,None,16,5,0,None,None,13,001,exponential,ybgr,0.35-0.75,2021_May_20_0900,color_judgement_and_subjective_perception,2020.2.10,60.058127019155705,
1,0.35,testing,1000,1,,,,,,,,,0,0,0,0,,,,,11,2,46,1,1241.532776043001,None,f,0.15501913800108014,1241.6328290870006,None,1241.0325253310002,1241.4494740520022,1241.8180485159974,1242.3163331800024,1241.8180485159974,None,0,0,3,None,None,13,001,exponential,ybgr,0.35-0.75,2021_May_20_0900,color_judgement_and_subjective_perception,2020.2.10,60.058127019155705,
2,0.35,testing,1000,1,,,,,,,,,0,0,0,0,,,,,11,3,47,2,1242.9165561530026,None,f,0.2914246779982932,1243.0164255049967,None,1242.4162392409999,1242.8331207160008,1243.334686615999,1243.833076777999,1243.334686615999,None,0,4,0,None,None,13,001,exponential,ybgr,0.35-0.75,2021_May_20_0900,color_judgement_and_subjective_perception,2020.2.10,60.058127019155705,
3,0.35,testing,1000,1,,,,,,,,,0,0,0,0,,,,,12,0,48,3,1244.4332706440036,None,f,0.4226014580053743,1244.5332775499992,None,1243.9330000870032,1244.3500207739999,1244.9841589029966,1245.4842487549977,1244.9841589029966,None,18,6,0,None,None,13,001,exponential,ybgr,0.35-0.75,2021_May_20_0900,color_judgement_and_subjective_perception,2020.2.10,60.058127019155705,
2,0.35,testing,1000,1,,,,,,,,,0,0,0,0,,,,,12,1,49,2,1246.0843087070025,None,f,0.7635293429993908,1246.1843101769991,None,1245.584062435999,1246.0010690490017,1246.9676332180024,1247.4680233149993,1246.9676332180024,None,0,7,0,None,None,13,001,exponential,ybgr,0.35-0.75,2021_May_20_0900,color_judgement_and_subjective_perception,2020.2.10,60.058127019155705,
1,0.35,testing,1000,1,,,,,,,,,0,0,0,0,,,,,12,2,50,1,1248.0680209720012,None,None,-1,1248.1680112149988,None,1247.567856759997,1247.9845415160016,1249.0854569930016,1249.5850590850023,1249.0854569930016,None,0,0,4,None,None,13,001,exponential,ybgr,0.35-0.75,2021_May_20_0900,color_judgement_and_subjective_perception,2020.2.10,60.058127019155705,
1,0.35,testing,1000,1,,,,,,,,,0,0,0,0,,,,,12,3,51,1,1250.1693039210004,None,f,0.4786888110029395,1250.269188256003,None,1249.6847451089998,1250.0859385700023,1250.770721699002,1251.269303633002,1250.770721699002,None,0,0,4,None,None,13,001,exponential,ybgr,0.35-0.75,2021_May_20_0900,color_judgement_and_subjective_perception,2020.2.10,60.058127019155705,
0,0.35,testing,1000,1,,,,,,,,,0,0,0,0,,,,,13,0,52,0,1251.8694759089994,None,j,0.762249804000021,1251.969465326998,None,1251.3691279269988,1251.7860186160033,1252.7546708430018,1253.2529580390037,1252.7546708430018,None,33,33,0,None,None,13,001,exponential,ybgr,0.35-0.75,2021_May_20_0900,color_judgement_and_subjective_perception,2020.2.10,60.058127019155705,
3,0.35,testing,1000,1,,,,,,,,,0,0,0,0,,,,,13,1,53,3,1253.8530356249976,None,f,0.6827624639990972,1253.9530646600033,None,1253.3528844320026,1253.769596131002,1254.6533411240016,1255.1374936430002,1254.6533411240016,None,22,7,0,None,None,13,001,exponential,ybgr,0.35-0.75,2021_May_20_0900,color_judgement_and_subjective_perception,2020.2.10,60.058127019155705,
1,0.35,testing,1000,1,,,,,,,,,0,0,0,0,,,,,13,2,54,1,1255.7375088889967,None,d,0.3503338340015034,1255.8374366459975,None,1255.2371235820028,1255.6540975099997,1256.2207738599973,1256.720953365002,1256.2207738599973,None,0,0,4,None,None,13,001,exponential,ybgr,0.35-0.75,2021_May_20_0900,color_judgement_and_subjective_perception,2020.2.10,60.058127019155705,
0,0.35,testing,1000,1,,,,,,,,,0,0,0,0,,,,,13,3,55,0,1257.3212144089994,None,j,0.8788671490037814,1257.4210016279976,None,1256.8208733459978,1257.237694042,1258.3210868969982,1258.8211543409998,1258.3210868969982,None,37,37,0,None,None,13,001,exponential,ybgr,0.35-0.75,2021_May_20_0900,color_judgement_and_subjective_perception,2020.2.10,60.058127019155705,
3,0.35,testing,1000,1,,,,,,,,,0,0,0,0,,,,,14,0,56,3,1259.4215601719989,None,f,0.8743893149949145,1259.5214388460008,None,1258.921072154997,1259.338079189998,1260.4243582470008,1260.9223651749999,1260.4243582470008,None,26,9,0,None,None,13,001,exponential,ybgr,0.35-0.75,2021_May_20_0900,color_judgement_and_subjective_perception,2020.2.10,60.058127019155705,
2,0.35,testing,1000,1,,,,,,,,,0,0,0,0,,,,,14,1,57,2,1261.5224312409991,None,None,-1,1261.6225612120033,None,1261.022143219001,1261.4390786090007,1262.5392751969994,1263.0393928620033,1262.5392751969994,None,0,14,0,None,None,13,001,exponential,ybgr,0.35-0.75,2021_May_20_0900,color_judgement_and_subjective_perception,2020.2.10,60.058127019155705,
0,0.35,testing,1000,1,,,,,,,,,0,0,0,0,,,,,14,2,58,0,1263.6394967419983,None,d,0.5522690950019751,1263.7395305570026,None,1263.1391538149983,1263.5561285009971,1264.3248214850028,1264.8231535099985,1264.3248214850028,None,41,41,0,None,None,13,001,exponential,ybgr,0.35-0.75,2021_May_20_0900,color_judgement_and_subjective_perception,2020.2.10,60.058127019155705,
0,0.35,testing,1000,1,,,,,,,,,0,0,0,0,,,,,14,3,59,0,1265.4073097060027,None,d,0.5926570309966337,1265.5072032410026,None,1264.9070566590017,1265.3239996659977,1266.1238424580006,1266.6241642910027,1266.1238424580006,None,43,43,0,None,None,13,001,exponential,ybgr,0.35-0.75,2021_May_20_0900,color_judgement_and_subjective_perception,2020.2.10,60.058127019155705,
1,0.35,testing,1000,1,,,,,,,,,0,0,0,0,,,,,15,0,60,1,1267.2244402659999,None,f,0.5195615170014207,1267.3242880339967,None,1266.723879352001,1267.1409583200002,1267.8741297779998,1268.3743015450018,1267.8741297779998,None,0,0,7,None,None,13,001,exponential,ybgr,0.35-0.75,2021_May_20_0900,color_judgement_and_subjective_perception,2020.2.10,60.058127019155705,
