color_idx_ind,target_acc,mode,response_deadline,block_number,trials_training.thisRepN,trials_training.thisTrialN,trials_training.thisN,trials_training.thisIndex,trials_training_deadline.thisRepN,trials_training_deadline.thisTrialN,trials_training_deadline.thisN,trials_training_deadline.thisIndex,blocks.thisRepN,blocks.thisTrialN,blocks.thisN,blocks.thisIndex,trials_staircase.thisRepN,trials_staircase.thisTrialN,trials_staircase.thisN,trials_staircase.thisIndex,trials.thisRepN,trials.thisTrialN,trials.thisN,trials.thisIndex,stimulus_ind.started,stimulus_ind.stopped,key_resp_ind.keys,key_resp_ind.rt,key_resp_ind.started,key_resp_ind.stopped,fixation_cross_1_ind.started,fixation_cross_1_ind.stopped,text.started,text.stopped,dummy_text.started,dummy_text.stopped,stim_ind_color_rgb_r,stim_ind_color_rgb_g,stim_ind_color_rgb_b,text_break_block.started,text_break_block.stopped,participant,session,accuracy_weighting,color_mapping,block_difficulties,date,expName,psychopyVersion,frameRate,
0,0.9,training,1000000000000,,0,0,0,0,,,,,,,,,,,,,,,,,1031.9904678759995,None,d,1.287316121000913,1032.090491719995,None,1031.4940664589958,1031.907112173998,1033.409226707001,1033.9074920659987,1033.409226707001,None,,,,,,14,001,exponential,ybgr,0.75-0.35,2021_May_20_1015,color_judgement_and_subjective_perception,2020.2.10,60.01820664327771,
1,0.9,training,1000000000000,,0,1,1,1,,,,,,,,,,,,,,,,,1034.5075713449987,None,f,0.8582027749944245,1034.6075629799961,None,1034.007489618998,1034.4240395509987,1035.4908485359992,1035.9910651309983,1035.4908485359992,None,,,,,,14,001,exponential,ybgr,0.75-0.35,2021_May_20_1015,color_judgement_and_subjective_perception,2020.2.10,60.01820664327771,
0,0.9,training,1000000000000,,0,2,2,2,,,,,,,,,,,,,,,,,1036.5754457369985,None,j,0.5662320609990275,1036.6755064870013,None,1036.0910449199946,1036.4920275619952,1037.259050474,1037.7588336699991,1037.259050474,None,,,,,,14,001,exponential,ybgr,0.75-0.35,2021_May_20_1015,color_judgement_and_subjective_perception,2020.2.10,60.01820664327771,
2,0.9,training,1000000000000,,0,3,3,3,,,,,,,,,,,,,,,,,1038.3590716420003,None,j,1.1268916850021924,1038.4589014879966,None,1037.8587827459996,1038.2757013730006,1039.6090109689976,1040.1091776419998,1039.6090109689976,None,,,,,,14,001,exponential,ybgr,0.75-0.35,2021_May_20_1015,color_judgement_and_subjective_perception,2020.2.10,60.01820664327771,
3,0.9,training,1000000000000,,0,4,4,4,,,,,,,,,,,,,,,,,1040.709458006997,None,k,0.35250218999863137,1040.8092339089999,None,1040.2090999049979,1040.6258306569944,1041.1926413429974,1041.6770666739976,1041.1926413429974,None,,,,,,14,001,exponential,ybgr,0.75-0.35,2021_May_20_1015,color_judgement_and_subjective_perception,2020.2.10,60.01820664327771,
1,0.9,training,1000000000000,,0,5,5,5,,,,,,,,,,,,,,,,,1042.2769662509963,None,d,0.8485365800006548,1042.3771430060006,None,1041.7768705319977,1042.1936092949982,1043.2435591339963,1043.744052176,1043.2435591339963,None,,,,,,14,001,exponential,ybgr,0.75-0.35,2021_May_20_1015,color_judgement_and_subjective_perception,2020.2.10,60.01820664327771,
0,0.9,training,1000000000000,,0,6,6,6,,,,,,,,,,,,,,,,,1044.344187196999,None,d,0.43775113899755524,1044.4440494369992,None,1043.8439388709958,1044.260860896,1044.9105844820006,1045.4108960629965,1044.9105844820006,None,,,,,,14,001,exponential,ybgr,0.75-0.35,2021_May_20_1015,color_judgement_and_subjective_perception,2020.2.10,60.01820664327771,
1,0.9,training,1000000000000,,0,7,7,7,,,,,,,,,,,,,,,,,1046.010951792996,None,f,0.4747035929976846,1046.1110342969987,None,1045.5108107889973,1045.9275521140007,1046.6117933529968,1047.1119981509983,1046.6117933529968,None,,,,,,14,001,exponential,ybgr,0.75-0.35,2021_May_20_1015,color_judgement_and_subjective_perception,2020.2.10,60.01820664327771,
0,0.9,training,1000000000000,,0,8,8,8,,,,,,,,,,,,,,,,,1047.7120665519979,None,d,0.8058548460030579,1047.811917961997,None,1047.2119120930001,1047.628533555995,1048.6453444930012,1049.1455865669996,1048.6453444930012,None,,,,,,14,001,exponential,ybgr,0.75-0.35,2021_May_20_1015,color_judgement_and_subjective_perception,2020.2.10,60.01820664327771,
2,0.9,training,1000000000000,,0,9,9,9,,,,,,,,,,,,,,,,,1049.7455477269978,None,j,0.35617501199885737,1049.8456112819986,None,1049.2455376979997,1049.6623267219984,1050.2288794429987,1050.7292861399983,1050.2288794429987,None,,,,,,14,001,exponential,ybgr,0.75-0.35,2021_May_20_1015,color_judgement_and_subjective_perception,2020.2.10,60.01820664327771,
0,0.9,training,1000000000000,,0,10,10,10,,,,,,,,,,,,,,,,,1051.3293619879987,None,d,0.5324357100034831,1051.429331979998,None,1050.829120014998,1051.2459756309981,1051.980175920995,1052.4800590509985,1051.980175920995,None,,,,,,14,001,exponential,ybgr,0.75-0.35,2021_May_20_1015,color_judgement_and_subjective_perception,2020.2.10,60.01820664327771,
1,0.9,training,1000000000000,,0,11,11,11,,,,,,,,,,,,,,,,,1053.0802565419945,None,f,0.3494090739986859,1053.1803485349956,None,1052.5801290759991,1052.996924551997,1053.5468810409948,1054.0473754819977,1053.5468810409948,None,,,,,,14,001,exponential,ybgr,0.75-0.35,2021_May_20_1015,color_judgement_and_subjective_perception,2020.2.10,60.01820664327771,
2,0.9,training,1000000000000,,0,12,12,12,,,,,,,,,,,,,,,,,1054.6473829639945,None,j,0.4065392830016208,1054.7472427309986,None,1054.1471977559995,1054.5639550459964,1055.1804908189952,1055.6807004759976,1055.1804908189952,None,,,,,,14,001,exponential,ybgr,0.75-0.35,2021_May_20_1015,color_judgement_and_subjective_perception,2020.2.10,60.01820664327771,
3,0.9,training,1000000000000,,0,13,13,13,,,,,,,,,,,,,,,,,1056.2810206569993,None,k,0.4530095590016572,1056.3807673289994,None,1055.7806994569983,1056.1975981049982,1056.8650364399946,1057.3650196499948,1056.8650364399946,None,,,,,,14,001,exponential,ybgr,0.75-0.35,2021_May_20_1015,color_judgement_and_subjective_perception,2020.2.10,60.01820664327771,
2,0.9,training,1000000000000,,0,14,14,14,,,,,,,,,,,,,,,,,1057.965297746996,None,j,0.6325075089989696,1058.0652321519956,None,1057.4650973419994,1057.8817341559989,1058.7152294499974,1059.2154505959988,1058.7152294499974,None,,,,,,14,001,exponential,ybgr,0.75-0.35,2021_May_20_1015,color_judgement_and_subjective_perception,2020.2.10,60.01820664327771,
3,0.9,training,1000000000000,,0,15,15,15,,,,,,,,,,,,,,,,,1059.815413862998,None,k,0.40634162700007437,1059.9154315560008,None,1059.315409470997,1059.7321345419987,1060.3486288029962,1060.8490123859956,1060.3486288029962,None,,,,,,14,001,exponential,ybgr,0.75-0.35,2021_May_20_1015,color_judgement_and_subjective_perception,2020.2.10,60.01820664327771,
1,0.9,training,1000000000000,,0,16,16,16,,,,,,,,,,,,,,,,,1061.447863770998,None,f,0.38045922799938126,1061.5333164619951,None,1060.9488978519948,1061.3658145910013,1061.933312549998,1062.433200200001,1061.933312549998,None,,,,,,14,001,exponential,ybgr,0.75-0.35,2021_May_20_1015,color_judgement_and_subjective_perception,2020.2.10,60.01820664327771,
2,0.9,training,1000000000000,,0,17,17,17,,,,,,,,,,,,,,,,,1063.0332779969976,None,j,0.5723331820045132,1063.1334217350013,None,1062.5333066050007,1062.9499205839966,1063.733429547996,1064.2335974989983,1063.733429547996,None,,,,,,14,001,exponential,ybgr,0.75-0.35,2021_May_20_1015,color_judgement_and_subjective_perception,2020.2.10,60.01820664327771,
1,0.9,training,1000000000000,,0,18,18,18,,,,,,,,,,,,,,,,,1064.8336264409954,None,j,0.468104002000473,1064.9336739879946,None,1064.3337043020001,1064.750313519995,1065.4335731639949,1065.9338848789994,1065.4335731639949,None,,,,,,14,001,exponential,ybgr,0.75-0.35,2021_May_20_1015,color_judgement_and_subjective_perception,2020.2.10,60.01820664327771,
3,0.9,training,1000000000000,,0,19,19,19,,,,,,,,,,,,,,,,,1066.518206116998,None,k,0.4955877350002993,1066.6182209399994,None,1066.0338214419971,1066.4493763649953,1067.1347792870001,1067.6348742720002,1067.1347792870001,None,,,,,,14,001,exponential,ybgr,0.75-0.35,2021_May_20_1015,color_judgement_and_subjective_perception,2020.2.10,60.01820664327771,
1,0.9,training,1000000000000,,0,20,20,20,,,,,,,,,,,,,,,,,1068.235179329,None,f,1.4427273820037954,1068.335036247001,None,1067.7348007449982,1068.151698761998,1069.8017862650013,1070.3020313239977,1069.8017862650013,None,,,,,,14,001,exponential,ybgr,0.75-0.35,2021_May_20_1015,color_judgement_and_subjective_perception,2020.2.10,60.01820664327771,
3,0.9,training,1000000000000,,0,21,21,21,,,,,,,,,,,,,,,,,1070.9021951449977,None,k,0.3676348640001379,1071.0021718770004,None,1070.4019727650011,1070.818844894995,1071.4019290840006,1071.8864408689988,1071.4019290840006,None,,,,,,14,001,exponential,ybgr,0.75-0.35,2021_May_20_1015,color_judgement_and_subjective_perception,2020.2.10,60.01820664327771,
0,0.9,training,1000000000000,,0,22,22,22,,,,,,,,,,,,,,,,,1072.4864676889993,None,d,0.41527035800390877,1072.586477936995,None,1071.9864574499952,1072.4032116859962,1073.019796116998,1073.5034562369983,1073.019796116998,None,,,,,,14,001,exponential,ybgr,0.75-0.35,2021_May_20_1015,color_judgement_and_subjective_perception,2020.2.10,60.01820664327771,
3,0.9,training,1000000000000,,0,23,23,23,,,,,,,,,,,,,,,,,1074.0950055279973,None,k,0.35079568999935873,1074.1868894180006,None,1073.6033474389988,1074.0203546869961,1074.5634919739969,1074.970159452001,1074.5634919739969,None,,,,,,14,001,exponential,ybgr,0.75-0.35,2021_May_20_1015,color_judgement_and_subjective_perception,2020.2.10,60.01820664327771,
2,0.9,training,1000000000000,,0,24,24,24,,,,,,,,,,,,,,,,,1075.5706334029965,None,j,0.45142847100214567,1075.670333270995,None,1075.0701558049986,1075.4868581769988,1076.153647549996,1076.6380610959968,1076.153647549996,None,,,,,,14,001,exponential,ybgr,0.75-0.35,2021_May_20_1015,color_judgement_and_subjective_perception,2020.2.10,60.01820664327771,
0,0.9,training,1000000000000,,0,25,25,25,,,,,,,,,,,,,,,,,1077.2379980029946,None,d,0.5278522649969091,1077.337836838,None,1076.7378794239994,1077.1546935180013,1077.8880822290012,1078.3883204000012,1077.8880822290012,None,,,,,,14,001,exponential,ybgr,0.75-0.35,2021_May_20_1015,color_judgement_and_subjective_perception,2020.2.10,60.01820664327771,
2,0.9,training,1000000000000,,0,26,26,26,,,,,,,,,,,,,,,,,1078.9884345719984,None,j,0.769144778001646,1079.0886015389988,None,1078.4883046309988,1078.9050116579965,1079.8883248499988,1080.3885906249998,1079.8883248499988,None,,,,,,14,001,exponential,ybgr,0.75-0.35,2021_May_20_1015,color_judgement_and_subjective_perception,2020.2.10,60.01820664327771,
0,0.9,training,1000000000000,,0,27,27,27,,,,,,,,,,,,,,,,,1080.9887886729994,None,d,0.5050449400005164,1081.0887474699994,None,1080.4886204159993,1080.9051688969994,1081.6228775909985,1082.1229086289968,1081.6228775909985,None,,,,,,14,001,exponential,ybgr,0.75-0.35,2021_May_20_1015,color_judgement_and_subjective_perception,2020.2.10,60.01820664327771,
3,0.9,training,1000000000000,,0,28,28,28,,,,,,,,,,,,,,,,,1082.7230222259968,None,k,0.5787950449957862,1082.822999252996,None,1082.2228145369954,1082.6397574139992,1083.423051261001,1083.9233196809946,1083.423051261001,None,,,,,,14,001,exponential,ybgr,0.75-0.35,2021_May_20_1015,color_judgement_and_subjective_perception,2020.2.10,60.01820664327771,
1,0.9,training,1000000000000,,0,29,29,29,,,,,,,,,,,,,,,,,1084.523267288001,None,f,0.9625314479999361,1084.623259011998,None,1084.0232846829967,1084.4401069279993,1085.6068662799953,1086.1069468439964,1085.6068662799953,None,,,,,,14,001,exponential,ybgr,0.75-0.35,2021_May_20_1015,color_judgement_and_subjective_perception,2020.2.10,60.01820664327771,
3,0.9,training,1000000000000,,0,30,30,30,,,,,,,,,,,,,,,,,1086.691253377001,None,k,0.730503396000131,1086.7911920249971,None,1086.2069345099953,1086.607798981,1087.5410852509958,1088.0412441189983,1087.5410852509958,None,,,,,,14,001,exponential,ybgr,0.75-0.35,2021_May_20_1015,color_judgement_and_subjective_perception,2020.2.10,60.01820664327771,
2,0.9,training,1000000000000,,0,31,31,31,,,,,,,,,,,,,,,,,1088.641518864999,None,f,0.5642511260011815,1088.7415048849944,None,1088.1414441140005,1088.5582545939978,1089.324799158996,1089.824955819,1089.324799158996,None,,,,,,14,001,exponential,ybgr,0.75-0.35,2021_May_20_1015,color_judgement_and_subjective_perception,2020.2.10,60.01820664327771,
0,0.9,training,1000,,,,,,0,0,0,0,,,,,,,,,,,,,1098.9281102519963,None,d,0.46984969999903115,1099.0279089670003,None,1098.4307305490001,1098.8446815069983,1099.5278643499987,1100.028063523001,1099.5278643499987,None,,,,,,14,001,exponential,ybgr,0.75-0.35,2021_May_20_1015,color_judgement_and_subjective_perception,2020.2.10,60.01820664327771,
2,0.9,training,1000,,,,,,0,1,1,1,,,,,,,,,,,,,1100.6283439170002,None,j,0.4816457599954447,1100.728125360998,None,1100.128070822997,1100.5448724379967,1101.228213770999,1101.712670119996,1101.228213770999,None,,,,,,14,001,exponential,ybgr,0.75-0.35,2021_May_20_1015,color_judgement_and_subjective_perception,2020.2.10,60.01820664327771,
1,0.9,training,1000,,,,,,0,2,2,2,,,,,,,,,,,,,1102.3125845179966,None,f,0.3971638759976486,1102.4125972519978,None,1101.8126305729966,1102.2292423929975,1102.8293159280001,1103.3294184229962,1102.8293159280001,None,,,,,,14,001,exponential,ybgr,0.75-0.35,2021_May_20_1015,color_judgement_and_subjective_perception,2020.2.10,60.01820664327771,
0,0.9,training,1000,,,,,,0,3,3,3,,,,,,,,,,,,,1103.9295510449956,None,d,0.4840554449983756,1104.0296236799986,None,1103.4294522409982,1103.8462591479984,1104.5463384049945,1105.046314127001,1104.5463384049945,None,,,,,,14,001,exponential,ybgr,0.75-0.35,2021_May_20_1015,color_judgement_and_subjective_perception,2020.2.10,60.01820664327771,
3,0.9,training,1000,,,,,,0,4,4,4,,,,,,,,,,,,,1105.6465396790009,None,k,0.351245812002162,1105.7465188610004,None,1105.1463334049986,1105.5631041679953,1106.1297046069958,1106.6141864409947,1106.1297046069958,None,,,,,,14,001,exponential,ybgr,0.75-0.35,2021_May_20_1015,color_judgement_and_subjective_perception,2020.2.10,60.01820664327771,
0,0.9,training,1000,,,,,,0,5,5,5,,,,,,,,,,,,,1107.2141127639989,None,d,0.5755584230064414,1107.3142016450001,None,1106.7138826969967,1107.1309182080004,1107.9142048029971,1108.414460519998,1107.9142048029971,None,,,,,,14,001,exponential,ybgr,0.75-0.35,2021_May_20_1015,color_judgement_and_subjective_perception,2020.2.10,60.01820664327771,
1,0.9,training,1000,,,,,,0,6,6,6,,,,,,,,,,,,,1109.014588332997,None,f,0.26325229599751765,1109.1145184639972,None,1108.514361317997,1108.9312214589954,1109.3978951839963,1109.897940185001,1109.3978951839963,None,,,,,,14,001,exponential,ybgr,0.75-0.35,2021_May_20_1015,color_judgement_and_subjective_perception,2020.2.10,60.01820664327771,
3,0.9,training,1000,,,,,,0,7,7,7,,,,,,,,,,,,,1110.4980442219967,None,k,0.28365289099747315,1110.5980255749964,None,1109.9978582740005,1110.4145758800005,1110.9147327319952,1111.4146790219966,1110.9147327319952,None,,,,,,14,001,exponential,ybgr,0.75-0.35,2021_May_20_1015,color_judgement_and_subjective_perception,2020.2.10,60.01820664327771,
0,0.9,training,1000,,,,,,0,8,8,8,,,,,,,,,,,,,1111.9992099340016,None,d,0.2948103800008539,1112.0989699069978,None,1111.4988655839988,1111.9158861869946,1112.4158142359956,1112.9157285129986,1112.4158142359956,None,,,,,,14,001,exponential,ybgr,0.75-0.35,2021_May_20_1015,color_judgement_and_subjective_perception,2020.2.10,60.01820664327771,
2,0.9,training,1000,,,,,,0,9,9,9,,,,,,,,,,,,,1113.5160123129972,None,j,0.4897569660024601,1113.6159984879996,None,1113.0158641629969,1113.432593439,1114.1326632959972,1114.6327379499999,1114.1326632959972,None,,,,,,14,001,exponential,ybgr,0.75-0.35,2021_May_20_1015,color_judgement_and_subjective_perception,2020.2.10,60.01820664327771,
0,0.9,training,1000,,,,,,0,10,10,10,,,,,,,,,,,,,1115.2328548029982,None,f,0.6049017230034224,1115.3328501180004,None,1114.7327780579944,1115.149494528996,1115.9661403189966,1116.4650736359981,1115.9661403189966,None,,,,,,14,001,exponential,ybgr,0.75-0.35,2021_May_20_1015,color_judgement_and_subjective_perception,2020.2.10,60.01820664327771,
1,0.9,training,1000,,,,,,0,11,11,11,,,,,,,,,,,,,1117.0507952709959,None,f,0.5390782839967869,1117.1507217959952,None,1116.550574558998,1116.967542421,1117.7172458119967,1118.2175369379984,1117.7172458119967,None,,,,,,14,001,exponential,ybgr,0.75-0.35,2021_May_20_1015,color_judgement_and_subjective_perception,2020.2.10,60.01820664327771,
2,0.9,training,1000,,,,,,0,12,12,12,,,,,,,,,,,,,1118.8176078729957,None,j,0.43597659499937436,1118.917779192001,None,1118.3175941299996,1118.734360782997,1119.3842870129956,1119.884527848997,1119.3842870129956,None,,,,,,14,001,exponential,ybgr,0.75-0.35,2021_May_20_1015,color_judgement_and_subjective_perception,2020.2.10,60.01820664327771,
3,0.9,training,1000,,,,,,0,13,13,13,,,,,,,,,,,,,1120.4845711399976,None,k,0.28906715900666313,1120.584649463999,None,1119.984384849995,1120.4011606389977,1120.9011114620007,1121.4013011429997,1120.9011114620007,None,,,,,,14,001,exponential,ybgr,0.75-0.35,2021_May_20_1015,color_judgement_and_subjective_perception,2020.2.10,60.01820664327771,
2,0.9,training,1000,,,,,,0,14,14,14,,,,,,,,,,,,,1121.9854383220008,None,f,0.7721204350018525,1122.085693216999,None,1121.4874139569947,1121.9021109919995,1122.8855411920013,1123.3857717459978,1122.8855411920013,None,,,,,,14,001,exponential,ybgr,0.75-0.35,2021_May_20_1015,color_judgement_and_subjective_perception,2020.2.10,60.01820664327771,
0,0.9,training,1000,,,,,,0,15,15,15,,,,,,,,,,,,,1123.9860407669985,None,d,0.40373774899489945,1124.0860036539962,None,1123.4857873309957,1123.9026679019953,1124.5191429859988,1125.0193525119976,1124.5191429859988,None,,,,,,14,001,exponential,ybgr,0.75-0.35,2021_May_20_1015,color_judgement_and_subjective_perception,2020.2.10,60.01820664327771,
3,0.9,training,1000,,,,,,0,16,16,16,,,,,,,,,,,,,1125.619555583995,None,k,0.386269025002548,1125.7195175129964,None,1125.1193889259957,1125.5360297189982,1126.1360885409958,1126.620562174001,1126.1360885409958,None,,,,,,14,001,exponential,ybgr,0.75-0.35,2021_May_20_1015,color_judgement_and_subjective_perception,2020.2.10,60.01820664327771,
2,0.9,training,1000,,,,,,0,17,17,17,,,,,,,,,,,,,1127.2204105369965,None,j,0.7933783240005141,1127.320394794995,None,1126.7205886309966,1127.1372293719978,1128.137239926,1128.6374331670013,1128.137239926,None,,,,,,14,001,exponential,ybgr,0.75-0.35,2021_May_20_1015,color_judgement_and_subjective_perception,2020.2.10,60.01820664327771,
3,0.9,training,1000,,,,,,0,18,18,18,,,,,,,,,,,,,1129.2375291739954,None,k,0.30430010599957313,1129.3374777499994,None,1128.737336967999,1129.154176584998,1129.6708170259953,1130.170999793001,1129.6708170259953,None,,,,,,14,001,exponential,ybgr,0.75-0.35,2021_May_20_1015,color_judgement_and_subjective_perception,2020.2.10,60.01820664327771,
2,0.9,training,1000,,,,,,0,19,19,19,,,,,,,,,,,,,1130.7710454650005,None,j,0.5706774999998743,1130.8710913859977,None,1130.2709156089986,1130.6875269820011,1131.4696459589977,1131.955429925998,1131.4696459589977,None,,,,,,14,001,exponential,ybgr,0.75-0.35,2021_May_20_1015,color_judgement_and_subjective_perception,2020.2.10,60.01820664327771,
1,0.9,training,1000,,,,,,0,20,20,20,,,,,,,,,,,,,1132.5554900700008,None,f,0.4583577330049593,1132.6553973839982,None,1132.0553896310012,1132.4720214810004,1133.138728371996,1133.6389909649952,1133.138728371996,None,,,,,,14,001,exponential,ybgr,0.75-0.35,2021_May_20_1015,color_judgement_and_subjective_perception,2020.2.10,60.01820664327771,
0,0.9,training,1000,,,,,,0,21,21,21,,,,,,,,,,,,,1134.2392342979947,None,d,0.29454367799917236,1134.3390994049987,None,1133.7389705919995,1134.1557638089944,1134.6559248669946,1135.1557619399973,1134.6559248669946,None,,,,,,14,001,exponential,ybgr,0.75-0.35,2021_May_20_1015,color_judgement_and_subjective_perception,2020.2.10,60.01820664327771,
1,0.9,training,1000,,,,,,0,22,22,22,,,,,,,,,,,,,1135.7560681879986,None,f,0.26565218299947446,1135.8560827039983,None,1135.2558643000011,1135.6726847120008,1136.1392870790005,1136.6236480279986,1136.1392870790005,None,,,,,,14,001,exponential,ybgr,0.75-0.35,2021_May_20_1015,color_judgement_and_subjective_perception,2020.2.10,60.01820664327771,
3,0.9,training,1000,,,,,,0,23,23,23,,,,,,,,,,,,,1137.2237078420003,None,j,0.35805329700087896,1137.3237203309982,None,1136.7236840449987,1137.1404637119995,1137.7069134939957,1138.207062526999,1137.7069134939957,None,,,,,,14,001,exponential,ybgr,0.75-0.35,2021_May_20_1015,color_judgement_and_subjective_perception,2020.2.10,60.01820664327771,
1,0.9,training,1000,,,,,,0,24,24,24,,,,,,,,,,,,,1138.8075260039986,None,f,0.42229095000220696,1138.9074496460016,None,1138.3071125939969,1138.7239608300006,1139.357350663995,1139.857335568995,1139.357350663995,None,,,,,,14,001,exponential,ybgr,0.75-0.35,2021_May_20_1015,color_judgement_and_subjective_perception,2020.2.10,60.01820664327771,
0,0.9,training,1000,,,,,,0,25,25,25,,,,,,,,,,,,,1140.457319756999,None,d,0.3402538989976165,1140.557519091999,None,1139.9573878459996,1140.374092180995,1140.9242866839995,1141.4244582859974,1140.9242866839995,None,,,,,,14,001,exponential,ybgr,0.75-0.35,2021_May_20_1015,color_judgement_and_subjective_perception,2020.2.10,60.01820664327771,
1,0.9,training,1000,,,,,,0,26,26,26,,,,,,,,,,,,,1142.008628976997,None,f,0.5090729639996425,1142.1086710829986,None,1141.5084520999953,1141.925167608999,1142.6418580280006,1143.1421714569951,1142.6418580280006,None,,,,,,14,001,exponential,ybgr,0.75-0.35,2021_May_20_1015,color_judgement_and_subjective_perception,2020.2.10,60.01820664327771,
2,0.9,training,1000,,,,,,0,27,27,27,,,,,,,,,,,,,1143.742191767,None,j,0.24745762300153729,1143.8422990939944,None,1143.2419087559974,1143.6588773799958,1144.1089359830003,1144.6091074309952,1144.1089359830003,None,,,,,,14,001,exponential,ybgr,0.75-0.35,2021_May_20_1015,color_judgement_and_subjective_perception,2020.2.10,60.01820664327771,
3,0.9,training,1000,,,,,,0,28,28,28,,,,,,,,,,,,,1145.2091751749977,None,k,0.2766366180003388,1145.3091224890013,None,1144.7088977849999,1145.125587401999,1145.609016221999,1146.1092800170009,1145.609016221999,None,,,,,,14,001,exponential,ybgr,0.75-0.35,2021_May_20_1015,color_judgement_and_subjective_perception,2020.2.10,60.01820664327771,
1,0.9,training,1000,,,,,,0,29,29,29,,,,,,,,,,,,,1146.6934531919978,None,d,0.4241578350047348,1146.7935602579964,None,1146.2092237809993,1146.6101801039986,1147.2433031379987,1147.7436326929965,1147.2433031379987,None,,,,,,14,001,exponential,ybgr,0.75-0.35,2021_May_20_1015,color_judgement_and_subjective_perception,2020.2.10,60.01820664327771,
0,0.9,training,1000,,,,,,0,30,30,30,,,,,,,,,,,,,1148.3437425820011,None,d,0.533979220999754,1148.4436847079996,None,1147.8434457159965,1148.260351621997,1149.0103911439946,1149.510471759997,1149.0103911439946,None,,,,,,14,001,exponential,ybgr,0.75-0.35,2021_May_20_1015,color_judgement_and_subjective_perception,2020.2.10,60.01820664327771,
1,0.9,training,1000,,,,,,0,31,31,31,,,,,,,,,,,,,1150.1106619369966,None,f,0.5671705540007679,1150.2105199789949,None,1149.6104927740016,1150.0272748969946,1150.8106272590012,1151.3108448790008,1150.8106272590012,None,,,,,,14,001,exponential,ybgr,0.75-0.35,2021_May_20_1015,color_judgement_and_subjective_perception,2020.2.10,60.01820664327771,
2,0.9,training,1000,,,,,,0,32,32,32,,,,,,,,,,,,,1151.8950155079947,None,j,0.38271492100466276,1151.9950759689964,None,1151.4107906329955,1151.8116290229955,1152.3948825069965,1152.8952322439945,1152.3948825069965,None,,,,,,14,001,exponential,ybgr,0.75-0.35,2021_May_20_1015,color_judgement_and_subjective_perception,2020.2.10,60.01820664327771,
3,0.9,training,1000,,,,,,0,33,33,33,,,,,,,,,,,,,1153.4953258359965,None,k,0.566426028002752,1153.5953489960011,None,1152.995108074996,1153.411915687997,1154.1786285310009,1154.6787245300002,1154.1786285310009,None,,,,,,14,001,exponential,ybgr,0.75-0.35,2021_May_20_1015,color_judgement_and_subjective_perception,2020.2.10,60.01820664327771,
2,0.9,training,1000,,,,,,0,34,34,34,,,,,,,,,,,,,1155.2788312589983,None,j,0.494939186006377,1155.3788183889992,None,1154.7787240469988,1155.195556366998,1155.8956689760016,1156.3956911329951,1155.8956689760016,None,,,,,,14,001,exponential,ybgr,0.75-0.35,2021_May_20_1015,color_judgement_and_subjective_perception,2020.2.10,60.01820664327771,
0,0.9,training,1000,,,,,,0,35,35,35,,,,,,,,,,,,,1156.9799827409952,None,d,0.45772792500065407,1157.079970449995,None,1156.488255958,1156.8967420189947,1157.5631392539944,1158.0633961759959,1157.5631392539944,None,,,,,,14,001,exponential,ybgr,0.75-0.35,2021_May_20_1015,color_judgement_and_subjective_perception,2020.2.10,60.01820664327771,
2,0.9,training,1000,,,,,,0,36,36,36,,,,,,,,,,,,,1158.6635554690001,None,j,0.47805658200377366,1158.7637155959965,None,1158.1633816030007,1158.5802527119959,1159.2637393869954,1159.7636916109986,1159.2637393869954,None,,,,,,14,001,exponential,ybgr,0.75-0.35,2021_May_20_1015,color_judgement_and_subjective_perception,2020.2.10,60.01820664327771,
3,0.9,training,1000,,,,,,0,37,37,37,,,,,,,,,,,,,1160.3638562189954,None,k,0.23374598100053845,1160.463910915998,None,1159.8637067679956,1160.2804828699955,1160.7304630759972,1161.2306349909995,1160.7304630759972,None,,,,,,14,001,exponential,ybgr,0.75-0.35,2021_May_20_1015,color_judgement_and_subjective_perception,2020.2.10,60.01820664327771,
1,0.9,training,1000,,,,,,0,38,38,38,,,,,,,,,,,,,1161.8148431779991,None,f,0.27091007999842986,1161.9148133359995,None,1161.330621119996,1161.731667508,1162.2148184649996,1162.7149488040013,1162.2148184649996,None,,,,,,14,001,exponential,ybgr,0.75-0.35,2021_May_20_1015,color_judgement_and_subjective_perception,2020.2.10,60.01820664327771,
3,0.9,training,1000,,,,,,0,39,39,39,,,,,,,,,,,,,1163.3151302170008,None,k,0.40267005199712,1163.4150878189976,None,1162.8148629339994,1163.2317481360005,1163.848461182999,1164.3487321360008,1163.848461182999,None,,,,,,14,001,exponential,ybgr,0.75-0.35,2021_May_20_1015,color_judgement_and_subjective_perception,2020.2.10,60.01820664327771,
0,0.9,training,1000,,,,,,0,40,40,40,,,,,,,,,,,,,1164.9486503039952,None,d,0.2729806249990361,1165.0487787640013,None,1164.448601652999,1164.8652857889974,1165.3485760289987,1165.8488964779972,1165.3485760289987,None,,,,,,14,001,exponential,ybgr,0.75-0.35,2021_May_20_1015,color_judgement_and_subjective_perception,2020.2.10,60.01820664327771,
1,0.9,training,1000,,,,,,0,41,41,41,,,,,,,,,,,,,1166.4488708249992,None,f,0.4765947400010191,1166.5331915589995,None,1165.9487529549951,1166.3655988109967,1167.0330423720006,1167.5331258509977,1167.0330423720006,None,,,,,,14,001,exponential,ybgr,0.75-0.35,2021_May_20_1015,color_judgement_and_subjective_perception,2020.2.10,60.01820664327771,
3,0.9,training,1000,,,,,,0,42,42,42,,,,,,,,,,,,,1168.1332342329988,None,k,0.37643879799725255,1168.2333185639945,None,1167.6331402110009,1168.050014651999,1168.6333061319965,1169.1335105359976,1168.6333061319965,None,,,,,,14,001,exponential,ybgr,0.75-0.35,2021_May_20_1015,color_judgement_and_subjective_perception,2020.2.10,60.01820664327771,
2,0.9,training,1000,,,,,,0,43,43,43,,,,,,,,,,,,,1169.7334796930008,None,j,0.6323097839995171,1169.8334266390011,None,1169.233519771995,1169.650189191998,1170.4835467459998,1170.9837585040004,1170.4835467459998,None,,,,,,14,001,exponential,ybgr,0.75-0.35,2021_May_20_1015,color_judgement_and_subjective_perception,2020.2.10,60.01820664327771,
0,0.9,training,1000,,,,,,0,44,44,44,,,,,,,,,,,,,1171.567929247998,None,d,0.5495142130021122,1171.668224187997,None,1171.083627987995,1171.4914764999994,1172.2346264389998,1172.7348283079991,1172.2346264389998,None,,,,,,14,001,exponential,ybgr,0.75-0.35,2021_May_20_1015,color_judgement_and_subjective_perception,2020.2.10,60.01820664327771,
3,0.9,training,1000,,,,,,0,45,45,45,,,,,,,,,,,,,1173.3348422099953,None,k,0.4468754280023859,1173.4348616189964,None,1172.8347804259975,1173.2515359870013,1173.9016946139964,1174.4017917179954,1173.9016946139964,None,,,,,,14,001,exponential,ybgr,0.75-0.35,2021_May_20_1015,color_judgement_and_subjective_perception,2020.2.10,60.01820664327771,
1,0.9,training,1000,,,,,,0,46,46,46,,,,,,,,,,,,,1175.0018492399977,None,f,0.8279176739961258,1175.1017303970002,None,1174.5015915049953,1174.9186116619967,1175.9517737130009,1176.452056187998,1175.9517737130009,None,,,,,,14,001,exponential,ybgr,0.75-0.35,2021_May_20_1015,color_judgement_and_subjective_perception,2020.2.10,60.01820664327771,
2,0.9,training,1000,,,,,,0,47,47,47,,,,,,,,,,,,,1177.0362543919982,None,None,-1,1177.136361302997,None,1176.5360901629974,1176.9528458689965,1178.0529373019963,1178.5533398389962,1178.0529373019963,None,,,,,,14,001,exponential,ybgr,0.75-0.35,2021_May_20_1015,color_judgement_and_subjective_perception,2020.2.10,60.01820664327771,
0,0.9,training,1000,,,,,,0,48,48,48,,,,,,,,,,,,,1179.153314889998,None,d,0.5003644450043794,1179.2533317080015,None,1178.6532429930012,1179.0701187109953,1179.7864916639955,1180.2867470649944,1179.7864916639955,None,,,,,,14,001,exponential,ybgr,0.75-0.35,2021_May_20_1015,color_judgement_and_subjective_perception,2020.2.10,60.01820664327771,
3,0.9,training,1000,,,,,,0,49,49,49,,,,,,,,,,,,,1180.8868295899956,None,k,0.30283331699320115,1180.9869068080006,None,1180.386725242999,1180.803614092998,1181.3201609530006,1181.8045366180013,1181.3201609530006,None,,,,,,14,001,exponential,ybgr,0.75-0.35,2021_May_20_1015,color_judgement_and_subjective_perception,2020.2.10,60.01820664327771,
1,0.9,training,1000,,,,,,0,50,50,50,,,,,,,,,,,,,1182.4044950280004,None,f,0.5851694119992317,1182.5045935939997,None,1181.9045368809966,1182.3210718839982,1183.1211784389961,1183.6214377789947,1183.1211784389961,None,,,,,,14,001,exponential,ybgr,0.75-0.35,2021_May_20_1015,color_judgement_and_subjective_perception,2020.2.10,60.01820664327771,
0,0.9,training,1000,,,,,,0,51,51,51,,,,,,,,,,,,,1184.2216182310003,None,d,0.7042364650042146,1184.321519183999,None,1183.7212598369952,1184.1382322630016,1185.054722656998,1185.5549916759992,1185.054722656998,None,,,,,,14,001,exponential,ybgr,0.75-0.35,2021_May_20_1015,color_judgement_and_subjective_perception,2020.2.10,60.01820664327771,
2,0.9,training,1000,,,,,,0,52,52,52,,,,,,,,,,,,,1186.1551203349954,None,j,0.47454820800339803,1186.2552123189962,None,1185.6549977620016,1186.0718612769997,1186.7560571489958,1187.2562604069972,1186.7560571489958,None,,,,,,14,001,exponential,ybgr,0.75-0.35,2021_May_20_1015,color_judgement_and_subjective_perception,2020.2.10,60.01820664327771,
0,0.9,training,1000,,,,,,0,53,53,53,,,,,,,,,,,,,1187.8562860819948,None,d,0.41342912999971304,1187.9563316439962,None,1187.356064487998,1187.7728709039948,1188.3894920390012,1188.8897354639994,1188.3894920390012,None,,,,,,14,001,exponential,ybgr,0.75-0.35,2021_May_20_1015,color_judgement_and_subjective_perception,2020.2.10,60.01820664327771,
2,0.9,training,1000,,,,,,0,54,54,54,,,,,,,,,,,,,1189.4899834460011,None,j,0.5638850250034011,1189.5898991729991,None,1188.9897649139966,1189.406495049996,1190.1731811909995,1190.6730904369979,1190.1731811909995,None,,,,,,14,001,exponential,ybgr,0.75-0.35,2021_May_20_1015,color_judgement_and_subjective_perception,2020.2.10,60.01820664327771,
3,0.9,training,1000,,,,,,0,55,55,55,,,,,,,,,,,,,1191.2734601880002,None,k,0.3002575029968284,1191.3734789879964,None,1190.7733364399974,1191.1901341039993,1191.6908784599946,1192.1909071799964,1191.6908784599946,None,,,,,,14,001,exponential,ybgr,0.75-0.35,2021_May_20_1015,color_judgement_and_subjective_perception,2020.2.10,60.01820664327771,
0,0.9,training,1000,,,,,,0,56,56,56,,,,,,,,,,,,,1192.7912519729944,None,d,0.3266469619993586,1192.8911204350006,None,1192.2909494189953,1192.7077692300008,1193.2409339099977,1193.7413866060015,1193.2409339099977,None,,,,,,14,001,exponential,ybgr,0.75-0.35,2021_May_20_1015,color_judgement_and_subjective_perception,2020.2.10,60.01820664327771,
1,0.9,training,1000,,,,,,0,57,57,57,,,,,,,,,,,,,1194.3414207539972,None,f,0.5123952240028302,1194.4414117599954,None,1193.8412744960006,1194.258025129995,1194.9748088579945,1195.4747980709944,1194.9748088579945,None,,,,,,14,001,exponential,ybgr,0.75-0.35,2021_May_20_1015,color_judgement_and_subjective_perception,2020.2.10,60.01820664327771,
2,0.9,training,1000,,,,,,0,58,58,58,,,,,,,,,,,,,1196.074911399999,None,j,0.4428209220059216,1196.174937773998,None,1195.5749425089962,1195.9916580950012,1196.6425802410013,1197.1425187389978,1196.6425802410013,None,,,,,,14,001,exponential,ybgr,0.75-0.35,2021_May_20_1015,color_judgement_and_subjective_perception,2020.2.10,60.01820664327771,
0,0.9,training,1000,,,,,,0,59,59,59,,,,,,,,,,,,,1197.7426641679995,None,k,0.5270632749961806,1197.8427029279992,None,1197.2425121900014,1197.6594390389946,1198.3926626850007,1198.8928523700015,1198.3926626850007,None,,,,,,14,001,exponential,ybgr,0.75-0.35,2021_May_20_1015,color_judgement_and_subjective_perception,2020.2.10,60.01820664327771,
3,0.9,training,1000,,,,,,0,60,60,60,,,,,,,,,,,,,1199.492944354999,None,k,0.3528724380012136,1199.5928959960002,None,1198.992938395997,1199.409665045001,1199.976145073997,1200.4765033039948,1199.976145073997,None,,,,,,14,001,exponential,ybgr,0.75-0.35,2021_May_20_1015,color_judgement_and_subjective_perception,2020.2.10,60.01820664327771,
2,0.9,training,1000,,,,,,0,61,61,61,,,,,,,,,,,,,1201.0765608309957,None,f,0.5610700159959379,1201.1766119179956,None,1200.5762925849995,1200.9932517689958,1201.7605675349987,1202.2608669689944,1201.7605675349987,None,,,,,,14,001,exponential,ybgr,0.75-0.35,2021_May_20_1015,color_judgement_and_subjective_perception,2020.2.10,60.01820664327771,
0,0.9,training,1000,,,,,,0,62,62,62,,,,,,,,,,,,,1202.8610515779947,None,d,0.400650357005361,1202.9610246189986,None,1202.360762446995,1202.7776852210009,1203.3942268870014,1203.8945780040012,1203.3942268870014,None,,,,,,14,001,exponential,ybgr,0.75-0.35,2021_May_20_1015,color_judgement_and_subjective_perception,2020.2.10,60.01820664327771,
2,0.9,training,1000,,,,,,0,63,63,63,,,,,,,,,,,,,1204.494692319,None,j,0.3351781029996346,1204.594596474999,None,1203.9945184989992,1204.411434859001,1204.9612172359994,1205.4613170800003,1204.9612172359994,None,,,,,,14,001,exponential,ybgr,0.75-0.35,2021_May_20_1015,color_judgement_and_subjective_perception,2020.2.10,60.01820664327771,
0,0.9,training,1000,,,,,,0,64,64,64,,,,,,,,,,,,,1206.061504874997,None,d,0.5043666479978128,1206.1613854759999,None,1205.561338128995,1205.9781102630004,1206.695646977998,1207.1958476149957,1206.695646977998,None,,,,,,14,001,exponential,ybgr,0.75-0.35,2021_May_20_1015,color_judgement_and_subjective_perception,2020.2.10,60.01820664327771,
3,0.9,training,1000,,,,,,0,65,65,65,,,,,,,,,,,,,1207.7959349879966,None,k,0.4178761860021041,1207.8958952339963,None,1207.295842307998,1207.7125210769955,1208.3457285080003,1208.8461378829961,1208.3457285080003,None,,,,,,14,001,exponential,ybgr,0.75-0.35,2021_May_20_1015,color_judgement_and_subjective_perception,2020.2.10,60.01820664327771,
3,0.9,training,1000,,,,,,0,66,66,66,,,,,,,,,,,,,1209.4461296160007,None,k,0.3755580889992416,1209.5462018260005,None,1208.9459145229994,1209.3628865270002,1209.946035918998,1210.4463097049957,1209.946035918998,None,,,,,,14,001,exponential,ybgr,0.75-0.35,2021_May_20_1015,color_judgement_and_subjective_perception,2020.2.10,60.01820664327771,
2,0.9,training,1000,,,,,,0,67,67,67,,,,,,,,,,,,,1211.0463668059965,None,j,0.4793165599985514,1211.1464404949947,None,1210.546111110998,1210.9630873860006,1211.6472234419998,1212.1472762709964,1211.6472234419998,None,,,,,,14,001,exponential,ybgr,0.75-0.35,2021_May_20_1015,color_judgement_and_subjective_perception,2020.2.10,60.01820664327771,
2,0.9,training,1000,,,,,,0,68,68,68,,,,,,,,,,,,,1212.747442889995,None,k,0.3782352880007238,1212.8475076789982,None,1212.2472591779951,1212.6643735909965,1213.2473383120014,1213.7476616290005,1213.2473383120014,None,,,,,,14,001,exponential,ybgr,0.75-0.35,2021_May_20_1015,color_judgement_and_subjective_perception,2020.2.10,60.01820664327771,
0,0.9,training,1000,,,,,,0,69,69,69,,,,,,,,,,,,,1214.3476732069976,None,d,0.5220745999977225,1214.4476723420012,None,1213.8474858219997,1214.2644571899946,1214.9975502369998,1215.4977199599962,1214.9975502369998,None,,,,,,14,001,exponential,ybgr,0.75-0.35,2021_May_20_1015,color_judgement_and_subjective_perception,2020.2.10,60.01820664327771,
1,0.9,training,1000,,,,,,0,70,70,70,,,,,,,,,,,,,1216.098026792999,None,j,0.37181839699769625,1216.1979596559977,None,1215.5977236120016,1216.014652480997,1216.598700482995,1217.0988377489994,1216.598700482995,None,,,,,,14,001,exponential,ybgr,0.75-0.35,2021_May_20_1015,color_judgement_and_subjective_perception,2020.2.10,60.01820664327771,
0,0.9,training,1000,,,,,,0,71,71,71,,,,,,,,,,,,,1217.6989182350007,None,d,0.602862179002841,1217.7989195599948,None,1217.1988476510014,1217.6156480680002,1218.4322068499969,1218.9326486579957,1218.4322068499969,None,,,,,,14,001,exponential,ybgr,0.75-0.35,2021_May_20_1015,color_judgement_and_subjective_perception,2020.2.10,60.01820664327771,
1,0.9,training,1000,,,,,,0,72,72,72,,,,,,,,,,,,,1219.5326025920003,None,f,0.24910540400014725,1219.6326319859945,None,1219.0324795359993,1219.4494462949951,1219.899134403,1220.3994617950011,1219.899134403,None,,,,,,14,001,exponential,ybgr,0.75-0.35,2021_May_20_1015,color_judgement_and_subjective_perception,2020.2.10,60.01820664327771,
1,0.9,training,1000,,,,,,0,73,73,73,,,,,,,,,,,,,1220.9996108429987,None,f,0.35813223099830793,1221.099678161001,None,1220.499329321996,1220.9159545609946,1221.4827738659951,1221.9671649090014,1221.4827738659951,None,,,,,,14,001,exponential,ybgr,0.75-0.35,2021_May_20_1015,color_judgement_and_subjective_perception,2020.2.10,60.01820664327771,
0,0.9,training,1000,,,,,,0,74,74,74,,,,,,,,,,,,,1222.5670330899957,None,d,0.8626704489943222,1222.6670954049987,None,1222.067089117998,1222.483789553,1223.5507648470011,1224.0508435449956,1223.5507648470011,None,,,,,,14,001,exponential,ybgr,0.75-0.35,2021_May_20_1015,color_judgement_and_subjective_perception,2020.2.10,60.01820664327771,
1,0.9,training,1000,,,,,,0,75,75,75,,,,,,,,,,,,,1224.650942417,None,f,0.4348869969981024,1224.7509338149976,None,1224.1508036099985,1224.5676937399985,1225.2174313610012,1225.7178388409957,1225.2174313610012,None,,,,,,14,001,exponential,ybgr,0.75-0.35,2021_May_20_1015,color_judgement_and_subjective_perception,2020.2.10,60.01820664327771,
1,0.9,training,1000,,,,,,0,76,76,76,,,,,,,,,,,,,1226.317943741,None,f,0.4240513050026493,1226.4177347529985,None,1225.8176644650011,1226.2343936879988,1226.8686211089953,1227.3688091379954,1226.8686211089953,None,,,,,,14,001,exponential,ybgr,0.75-0.35,2021_May_20_1015,color_judgement_and_subjective_perception,2020.2.10,60.01820664327771,
3,0.9,training,1000,,,,,,0,77,77,77,,,,,,,,,,,,,1227.969068587001,None,k,0.3568512620040565,1228.068910680995,None,1227.4686898349973,1227.885496539995,1228.4522299070013,1228.9523765099948,1228.4522299070013,None,,,,,,14,001,exponential,ybgr,0.75-0.35,2021_May_20_1015,color_judgement_and_subjective_perception,2020.2.10,60.01820664327771,
1,0.9,training,1000,,,,,,0,78,78,78,,,,,,,,,,,,,1229.5525794969944,None,f,0.4772157200059155,1229.652492436995,None,1229.0524033859983,1229.469272092996,1230.1524366660014,1230.6526931519984,1230.1524366660014,None,,,,,,14,001,exponential,ybgr,0.75-0.35,2021_May_20_1015,color_judgement_and_subjective_perception,2020.2.10,60.01820664327771,
3,0.9,training,1000,,,,,,0,79,79,79,,,,,,,,,,,,,1231.2527615949948,None,k,0.5769454850014881,1231.3527816979986,None,1230.752682931001,1231.169422549996,1231.9535240719997,1232.4537478569982,1231.9535240719997,None,,,,,,14,001,exponential,ybgr,0.75-0.35,2021_May_20_1015,color_judgement_and_subjective_perception,2020.2.10,60.01820664327771,
0,0.9,training,1000,,,,,,0,80,80,80,,,,,,,,,,,,,1233.053791585,None,d,0.4559840340007213,1233.1538283209957,None,1232.5535707870004,1232.9703519489995,1233.6370790299989,1234.1373598270002,1233.6370790299989,None,,,,,,14,001,exponential,ybgr,0.75-0.35,2021_May_20_1015,color_judgement_and_subjective_perception,2020.2.10,60.01820664327771,
3,0.9,training,1000,,,,,,0,81,81,81,,,,,,,,,,,,,1234.7373896009958,None,k,0.5243617730011465,1234.8374326259946,None,1234.2374281609955,1234.654008530997,1235.3873210609963,1235.8874719109954,1235.3873210609963,None,,,,,,14,001,exponential,ybgr,0.75-0.35,2021_May_20_1015,color_judgement_and_subjective_perception,2020.2.10,60.01820664327771,
2,0.9,training,1000,,,,,,0,82,82,82,,,,,,,,,,,,,1236.487594156999,None,f,0.509940871001163,1236.5718085510016,None,1235.987423683997,1236.4043137409972,1237.1051869660005,1237.605239892997,1237.1051869660005,None,,,,,,14,001,exponential,ybgr,0.75-0.35,2021_May_20_1015,color_judgement_and_subjective_perception,2020.2.10,60.01820664327771,
1,0.9,training,1000,,,,,,0,83,83,83,,,,,,,,,,,,,1238.2054329629973,None,f,0.2804505890017026,1238.305342159998,None,1237.7052821409961,1238.1220732899965,1238.605321930001,1239.105613781001,1238.605321930001,None,,,,,,14,001,exponential,ybgr,0.75-0.35,2021_May_20_1015,color_judgement_and_subjective_perception,2020.2.10,60.01820664327771,
3,0.9,training,1000,,,,,,0,84,84,84,,,,,,,,,,,,,1239.7055893439974,None,k,0.39616878800006816,1239.805609406998,None,1239.2056047840015,1239.6222854379957,1240.2224209199994,1240.7225549399955,1240.2224209199994,None,,,,,,14,001,exponential,ybgr,0.75-0.35,2021_May_20_1015,color_judgement_and_subjective_perception,2020.2.10,60.01820664327771,
2,0.9,training,1000,,,,,,0,85,85,85,,,,,,,,,,,,,1241.3225570169961,None,j,0.5791629509985796,1241.4226203829967,None,1240.8224661929999,1241.2392003109999,1242.0233555119994,1242.5235848320008,1242.0233555119994,None,,,,,,14,001,exponential,ybgr,0.75-0.35,2021_May_20_1015,color_judgement_and_subjective_perception,2020.2.10,60.01820664327771,
1,0.9,training,1000,,,,,,0,86,86,86,,,,,,,,,,,,,1243.1237180909957,None,f,0.4979851160023827,1243.2237851829996,None,1242.6235591680015,1243.0403038969962,1243.740390234001,1244.2407075019946,1243.740390234001,None,,,,,,14,001,exponential,ybgr,0.75-0.35,2021_May_20_1015,color_judgement_and_subjective_perception,2020.2.10,60.01820664327771,
0,0.9,training,1000,,,,,,0,87,87,87,,,,,,,,,,,,,1244.8405991969994,None,d,0.5890607280016411,1244.9406883970005,None,1244.3403619309975,1244.7571665629948,1245.5571404169968,1246.0574441579956,1245.5571404169968,None,,,,,,14,001,exponential,ybgr,0.75-0.35,2021_May_20_1015,color_judgement_and_subjective_perception,2020.2.10,60.01820664327771,
1,0.9,training,1000,,,,,,0,88,88,88,,,,,,,,,,,,,1246.6417606670002,None,f,0.37210946900449926,1246.7416359929994,None,1246.157575074998,1246.5582996329977,1247.141457441001,1247.641696435996,1247.141457441001,None,,,,,,14,001,exponential,ybgr,0.75-0.35,2021_May_20_1015,color_judgement_and_subjective_perception,2020.2.10,60.01820664327771,
3,0.9,training,1000,,,,,,0,89,89,89,,,,,,,,,,,,,1248.2419199860014,None,k,0.3958147020020988,1248.3419634839956,None,1247.7416903599951,1248.1585485219985,1248.758602515998,1249.258840786999,1248.758602515998,None,,,,,,14,001,exponential,ybgr,0.75-0.35,2021_May_20_1015,color_judgement_and_subjective_perception,2020.2.10,60.01820664327771,
1,0.9,training,1000,,,,,,0,90,90,90,,,,,,,,,,,,,1249.8588285919977,None,f,0.8107977729960112,1249.9588450899973,None,1249.358792086001,1249.7754641540014,1250.7920411109953,1251.292141783997,1250.7920411109953,None,,,,,,14,001,exponential,ybgr,0.75-0.35,2021_May_20_1015,color_judgement_and_subjective_perception,2020.2.10,60.01820664327771,
3,0.9,training,1000,,,,,,0,91,91,91,,,,,,,,,,,,,1251.8766063769945,None,k,0.42523658400023123,1251.9765323519969,None,1251.3919951610005,1251.793447598,1252.4266604469958,1252.9267274529993,1252.4266604469958,None,,,,,,14,001,exponential,ybgr,0.75-0.35,2021_May_20_1015,color_judgement_and_subjective_perception,2020.2.10,60.01820664327771,
2,0.9,training,1000,,,,,,0,92,92,92,,,,,,,,,,,,,1253.5268494849952,None,j,0.5106308899994474,1253.6270453819961,None,1253.0267010699972,1253.4435256049983,1254.1602153079948,1254.6604193370003,1254.1602153079948,None,,,,,,14,001,exponential,ybgr,0.75-0.35,2021_May_20_1015,color_judgement_and_subjective_perception,2020.2.10,60.01820664327771,
2,0.9,training,1000,,,,,,0,93,93,93,,,,,,,,,,,,,1255.2604319019956,None,j,0.31337538600200787,1255.360381341001,None,1254.7603221819954,1255.1772265929976,1255.6939016609977,1256.1939992199987,1255.6939016609977,None,,,,,,14,001,exponential,ybgr,0.75-0.35,2021_May_20_1015,color_judgement_and_subjective_perception,2020.2.10,60.01820664327771,
2,0.9,training,1000,,,,,,0,94,94,94,,,,,,,,,,,,,1256.7783715019978,None,j,0.3235437550029019,1256.8782246959963,None,1256.2938957660008,1256.6949250389953,1257.2281355009982,1257.728386709001,1257.2281355009982,None,,,,,,14,001,exponential,ybgr,0.75-0.35,2021_May_20_1015,color_judgement_and_subjective_perception,2020.2.10,60.01820664327771,
3,0.9,training,1000,,,,,,0,95,95,95,,,,,,,,,,,,,1258.3285101820002,None,d,0.5093507150013465,1258.4284434149959,None,1257.8283183219974,1258.2450665329961,1258.9617772799975,1259.4619392189998,1258.9617772799975,None,,,,,,14,001,exponential,ybgr,0.75-0.35,2021_May_20_1015,color_judgement_and_subjective_perception,2020.2.10,60.01820664327771,
0,0.75,testing,1000,1,,,,,,,,,0,0,0,0,0,0,0,0,,,,,1266.7315059839966,None,None,-1,1266.8315199499993,None,1266.2490757549967,1266.6480334559965,1267.747996856997,1268.248087547996,1267.747996856997,None,40,40,0,,,14,001,exponential,ybgr,0.75-0.35,2021_May_20_1015,color_judgement_and_subjective_perception,2020.2.10,60.01820664327771,
3,0.75,testing,1000,1,,,,,,,,,0,0,0,0,0,1,1,3,,,,,1268.8484148930002,None,k,0.5893021069932729,1268.9484666279968,None,1268.3481195729983,1268.7650436529948,1269.5650139520003,1270.065229255997,1269.5650139520003,None,51,17,0,,,14,001,exponential,ybgr,0.75-0.35,2021_May_20_1015,color_judgement_and_subjective_perception,2020.2.10,60.01820664327771,
1,0.75,testing,1000,1,,,,,,,,,0,0,0,0,0,2,2,1,,,,,1270.6652304649979,None,d,0.5645495380013017,1270.7652429839945,None,1270.1651410459963,1270.5820687009982,1271.3485334049983,1271.8330097180005,1271.3485334049983,None,0,0,39,,,14,001,exponential,ybgr,0.75-0.35,2021_May_20_1015,color_judgement_and_subjective_perception,2020.2.10,60.01820664327771,
2,0.75,testing,1000,1,,,,,,,,,0,0,0,0,0,3,3,2,,,,,1272.4330682750006,None,f,0.4846822749968851,1272.5331039099983,None,1271.9329845859975,1272.3495043750008,1273.0495910159952,1273.5498485399949,1273.0495910159952,None,0,32,0,,,14,001,exponential,ybgr,0.75-0.35,2021_May_20_1015,color_judgement_and_subjective_perception,2020.2.10,60.01820664327771,
1,0.75,testing,1000,1,,,,,,,,,0,0,0,0,1,0,4,1,,,,,1274.1500714290014,None,k,0.6957616729996516,1274.2499947299948,None,1273.6498000869979,1274.0667134619944,1274.9667116519995,1275.4667786029968,1274.9667116519995,None,0,0,42,,,14,001,exponential,ybgr,0.75-0.35,2021_May_20_1015,color_judgement_and_subjective_perception,2020.2.10,60.01820664327771,
3,0.75,testing,1000,1,,,,,,,,,0,0,0,0,1,1,5,3,,,,,1276.0668694439955,None,k,0.72280714000226,1276.166977447996,None,1275.566780647001,1275.9836593299988,1276.917626041999,1277.4177675539977,1276.917626041999,None,56,19,0,,,14,001,exponential,ybgr,0.75-0.35,2021_May_20_1015,color_judgement_and_subjective_perception,2020.2.10,60.01820664327771,
2,0.75,testing,1000,1,,,,,,,,,0,0,0,0,1,2,6,2,,,,,1278.0178233459956,None,j,0.6676927020016592,1278.118043247996,None,1277.5178098639954,1277.9346021460005,1278.817901081995,1279.318261802,1278.817901081995,None,0,36,0,,,14,001,exponential,ybgr,0.75-0.35,2021_May_20_1015,color_judgement_and_subjective_perception,2020.2.10,60.01820664327771,
0,0.75,testing,1000,1,,,,,,,,,0,0,0,0,1,3,7,0,,,,,1279.9183330969972,None,j,0.46337188399775187,1280.018391892001,None,1279.4181868570013,1279.8349397369966,1280.5015770999962,1281.001699028995,1280.5015770999962,None,48,48,0,,,14,001,exponential,ybgr,0.75-0.35,2021_May_20_1015,color_judgement_and_subjective_perception,2020.2.10,60.01820664327771,
2,0.75,testing,1000,1,,,,,,,,,0,0,0,0,2,0,8,2,,,,,1281.586022014999,None,j,0.7797401059942786,1281.686030372999,None,1281.1017333790005,1281.517427810999,1282.4859276969946,1282.9860634279976,1282.4859276969946,None,0,39,0,,,14,001,exponential,ybgr,0.75-0.35,2021_May_20_1015,color_judgement_and_subjective_perception,2020.2.10,60.01820664327771,
1,0.75,testing,1000,1,,,,,,,,,0,0,0,0,2,1,9,1,,,,,1283.553051117,None,f,0.4606341260005138,1283.653073896996,None,1283.0789153109945,1283.4685783399982,1284.136319100995,1284.5854134299952,1284.136319100995,None,0,0,48,,,14,001,exponential,ybgr,0.75-0.35,2021_May_20_1015,color_judgement_and_subjective_perception,2020.2.10,60.01820664327771,
3,0.75,testing,1000,1,,,,,,,,,0,0,0,0,2,2,10,3,,,,,1284.990415881999,None,None,-1,1285.0471314259994,None,1284.679509114998,1284.9443968139967,1285.5759037389944,1286.0533562959972,1285.5759037389944,None,62,21,0,,,14,001,exponential,ybgr,0.75-0.35,2021_May_20_1015,color_judgement_and_subjective_perception,2020.2.10,60.01820664327771,
0,0.75,testing,1000,1,,,,,,,,,0,0,0,0,2,3,11,0,,,,,1286.6378315539987,None,j,0.5118976459998521,1286.7378607899955,None,1286.153361163997,1286.5542064959955,1287.2708395719965,1287.7709941270004,1287.2708395719965,None,53,53,0,,,14,001,exponential,ybgr,0.75-0.35,2021_May_20_1015,color_judgement_and_subjective_perception,2020.2.10,60.01820664327771,
1,0.75,testing,1000,1,,,,,,,,,0,0,0,0,3,0,12,1,,,,,1288.3712271849945,None,j,0.45042036900122184,1288.4712592389988,None,1287.8709481789992,1288.2880408099954,1288.9545832000003,1289.4548913559993,1288.9545832000003,None,0,0,52,,,14,001,exponential,ybgr,0.75-0.35,2021_May_20_1015,color_judgement_and_subjective_perception,2020.2.10,60.01820664327771,
0,0.75,testing,1000,1,,,,,,,,,0,0,0,0,3,1,13,0,,,,,1290.054805243999,None,j,0.8628484899963951,1290.154924784998,None,1289.5546860729955,1289.971414904001,1291.038105350999,1291.5295701799987,1291.038105350999,None,56,56,0,,,14,001,exponential,ybgr,0.75-0.35,2021_May_20_1015,color_judgement_and_subjective_perception,2020.2.10,60.01820664327771,
2,0.75,testing,1000,1,,,,,,,,,0,0,0,0,3,2,14,2,,,,,1292.1225534929981,None,d,0.747391142998822,1292.2223808540002,None,1291.622535953,1292.0394383269959,1292.9892627090012,1293.4895552160015,1292.9892627090012,None,0,46,0,,,14,001,exponential,ybgr,0.75-0.35,2021_May_20_1015,color_judgement_and_subjective_perception,2020.2.10,60.01820664327771,
3,0.75,testing,1000,1,,,,,,,,,0,0,0,0,3,3,15,3,,,,,1294.0895973949955,None,k,0.36398022800131,1294.189758515,None,1293.589399520999,1294.0063166580003,1294.572935062999,1295.073190901996,1294.572935062999,None,68,23,0,,,14,001,exponential,ybgr,0.75-0.35,2021_May_20_1015,color_judgement_and_subjective_perception,2020.2.10,60.01820664327771,
2,0.75,testing,1000,1,,,,,,,,,0,0,0,0,4,0,16,2,,,,,1295.6732060680006,None,None,-1,1295.773244609998,None,1295.173011408995,1295.589924642998,1296.6740617949981,1297.1742093860012,1296.6740617949981,None,0,49,0,,,14,001,exponential,ybgr,0.75-0.35,2021_May_20_1015,color_judgement_and_subjective_perception,2020.2.10,60.01820664327771,
1,0.75,testing,1000,1,,,,,,,,,0,0,0,0,4,1,17,1,,,,,1297.7742628240012,None,f,0.4873161150026135,1297.8744295739962,None,1297.2741526190002,1297.690899579,1298.390880066996,1298.8911735239963,1298.390880066996,None,0,0,58,,,14,001,exponential,ybgr,0.75-0.35,2021_May_20_1015,color_judgement_and_subjective_perception,2020.2.10,60.01820664327771,
3,0.75,testing,1000,1,,,,,,,,,0,0,0,0,4,2,18,3,,,,,1299.4915405239954,None,k,0.4264202319973265,1299.5913283369955,None,1298.991128567999,1299.4080421830004,1300.0411574589962,1300.5414368549973,1300.0411574589962,None,72,24,0,,,14,001,exponential,ybgr,0.75-0.35,2021_May_20_1015,color_judgement_and_subjective_perception,2020.2.10,60.01820664327771,
0,0.75,testing,1000,1,,,,,,,,,0,0,0,0,4,3,19,0,,,,,1301.141567961,None,None,-1,1301.2415510309947,None,1300.6412732479948,1301.057983079998,1302.1421348739968,1302.6425029899983,1302.1421348739968,None,63,63,0,,,14,001,exponential,ybgr,0.75-0.35,2021_May_20_1015,color_judgement_and_subjective_perception,2020.2.10,60.01820664327771,
3,0.75,testing,1000,1,,,,,,,,,0,0,0,0,5,0,20,3,,,,,1303.2426189079997,None,k,0.4271278679952957,1303.342683570998,None,1302.7423353819977,1303.1591884079971,1303.7926204039977,1304.292894293998,1303.7926204039977,None,75,25,0,,,14,001,exponential,ybgr,0.75-0.35,2021_May_20_1015,color_judgement_and_subjective_perception,2020.2.10,60.01820664327771,
2,0.75,testing,1000,1,,,,,,,,,0,0,0,0,5,1,21,2,,,,,1304.8928393120004,None,None,-1,1304.9929170600008,None,1304.392799825997,1304.8094224169981,1305.9094767029965,1306.4096888880013,1305.9094767029965,None,0,55,0,,,14,001,exponential,ybgr,0.75-0.35,2021_May_20_1015,color_judgement_and_subjective_perception,2020.2.10,60.01820664327771,
0,0.75,testing,1000,1,,,,,,,,,0,0,0,0,5,2,22,0,,,,,1306.993903290997,None,d,0.7077925120029249,1307.094014675,None,1306.5095611579964,1306.9106600329978,1307.8272732039986,1308.3275095899953,1307.8272732039986,None,67,67,0,,,14,001,exponential,ybgr,0.75-0.35,2021_May_20_1015,color_judgement_and_subjective_perception,2020.2.10,60.01820664327771,
1,0.75,testing,1000,1,,,,,,,,,0,0,0,0,5,3,23,1,,,,,1308.9277232839959,None,f,0.46213033000094583,1309.0276611279987,None,1308.4274329420005,1308.8443580819949,1309.5109571299981,1310.0110003059963,1309.5109571299981,None,0,0,65,,,14,001,exponential,ybgr,0.75-0.35,2021_May_20_1015,color_judgement_and_subjective_perception,2020.2.10,60.01820664327771,
0,0.75,testing,1000,1,,,,,,,,,0,0,0,0,6,0,24,0,,,,,1310.6111517129975,None,d,0.7144534350009053,1310.7112806579971,None,1310.1109718980006,1310.5278963029996,1311.4445649260015,1311.9289302179968,1311.4445649260015,None,70,70,0,,,14,001,exponential,ybgr,0.75-0.35,2021_May_20_1015,color_judgement_and_subjective_perception,2020.2.10,60.01820664327771,
2,0.75,testing,1000,1,,,,,,,,,0,0,0,0,6,1,25,2,,,,,1312.5289537469944,None,j,0.5565800210024463,1312.6291813889984,None,1312.0286522280003,1312.4455703099957,1313.2122719649997,1313.7126493489995,1313.2122719649997,None,0,58,0,,,14,001,exponential,ybgr,0.75-0.35,2021_May_20_1015,color_judgement_and_subjective_perception,2020.2.10,60.01820664327771,
1,0.75,testing,1000,1,,,,,,,,,0,0,0,0,6,2,26,1,,,,,1314.3126135099956,None,f,0.4448837200034177,1314.4128791879994,None,1313.8126138399966,1314.2293602329955,1314.879264411,1315.3794759230004,1314.879264411,None,0,0,65,,,14,001,exponential,ybgr,0.75-0.35,2021_May_20_1015,color_judgement_and_subjective_perception,2020.2.10,60.01820664327771,
3,0.75,testing,1000,1,,,,,,,,,0,0,0,0,6,3,27,3,,,,,1315.9793707419958,None,k,0.39438705499924254,1316.0792848799974,None,1315.4793366099984,1315.8961630799968,1316.4959978029947,1316.9804706809955,1316.4959978029947,None,75,25,0,,,14,001,exponential,ybgr,0.75-0.35,2021_May_20_1015,color_judgement_and_subjective_perception,2020.2.10,60.01820664327771,
2,0.75,testing,1000,1,,,,,,,,,0,0,0,0,7,0,28,2,,,,,1317.5805875229998,None,j,0.8011959040013608,1317.6806046959973,None,1317.0804084720003,1317.4973589639994,1318.5137682419954,1319.0143153929967,1318.5137682419954,None,0,56,0,,,14,001,exponential,ybgr,0.75-0.35,2021_May_20_1015,color_judgement_and_subjective_perception,2020.2.10,60.01820664327771,
0,0.75,testing,1000,1,,,,,,,,,0,0,0,0,7,1,29,0,,,,,1319.614230799998,None,d,0.38329538000107277,1319.714392832997,None,1319.114007475997,1319.5309759969969,1320.1308429769997,1320.6310324529986,1320.1308429769997,None,66,66,0,,,14,001,exponential,ybgr,0.75-0.35,2021_May_20_1015,color_judgement_and_subjective_perception,2020.2.10,60.01820664327771,
3,0.75,testing,1000,1,,,,,,,,,0,0,0,0,7,2,30,3,,,,,1321.2311966999987,None,k,0.34254776099987794,1321.3312080539981,None,1320.7309190279993,1321.1478272050008,1321.6987190439977,1322.1987505989964,1321.6987190439977,None,71,24,0,,,14,001,exponential,ybgr,0.75-0.35,2021_May_20_1015,color_judgement_and_subjective_perception,2020.2.10,60.01820664327771,
1,0.75,testing,1000,1,,,,,,,,,0,0,0,0,7,3,31,1,,,,,1322.798882215,None,f,0.6308883910023724,1322.8988547609988,None,1322.2986588970016,1322.7155277479978,1323.548936141,1324.0491866289958,1323.548936141,None,0,0,61,,,14,001,exponential,ybgr,0.75-0.35,2021_May_20_1015,color_judgement_and_subjective_perception,2020.2.10,60.01820664327771,
3,0.75,testing,1000,1,,,,,,,,,0,0,0,0,8,0,32,3,,,,,1324.6491505589947,None,k,0.4926037120021647,1324.7491558159963,None,1324.149169837001,1324.5658921529975,1325.2657492449944,1325.7659415399976,1325.2657492449944,None,68,23,0,,,14,001,exponential,ybgr,0.75-0.35,2021_May_20_1015,color_judgement_and_subjective_perception,2020.2.10,60.01820664327771,
2,0.75,testing,1000,1,,,,,,,,,0,0,0,0,8,1,33,2,,,,,1326.3661058049984,None,j,0.4957091890028096,1326.4660588760016,None,1325.865848843001,1326.2828401049992,1326.983642539999,1327.4837305519977,1326.983642539999,None,0,52,0,,,14,001,exponential,ybgr,0.75-0.35,2021_May_20_1015,color_judgement_and_subjective_perception,2020.2.10,60.01820664327771,
1,0.75,testing,1000,1,,,,,,,,,0,0,0,0,8,2,34,1,,,,,1328.0837924189982,None,f,0.42583817999548046,1328.1839137619972,None,1327.5836241590005,1328.000336227,1328.633815879999,1329.1340948649959,1328.633815879999,None,0,0,57,,,14,001,exponential,ybgr,0.75-0.35,2021_May_20_1015,color_judgement_and_subjective_perception,2020.2.10,60.01820664327771,
0,0.75,testing,1000,1,,,,,,,,,0,0,0,0,8,3,35,0,,,,,1329.7339701710007,None,d,0.34363640700030373,1329.8341055279961,None,1329.2340277830008,1329.6507814819997,1330.2007398649948,1330.7009066760002,1330.2007398649948,None,61,61,0,,,14,001,exponential,ybgr,0.75-0.35,2021_May_20_1015,color_judgement_and_subjective_perception,2020.2.10,60.01820664327771,
2,0.75,testing,1000,1,,,,,,,,,0,0,0,0,9,0,36,2,,,,,1331.3009751089994,None,f,0.4007259000063641,1331.4010074850012,None,1330.800858734001,1331.2176022989952,1331.8184901919958,1332.3184777729984,1331.8184901919958,None,0,50,0,,,14,001,exponential,ybgr,0.75-0.35,2021_May_20_1015,color_judgement_and_subjective_perception,2020.2.10,60.01820664327771,
3,0.75,testing,1000,1,,,,,,,,,0,0,0,0,9,1,37,3,,,,,1332.9186567029974,None,k,0.4151339489981183,1333.0186356129998,None,1332.4185723569972,1332.8352331389979,1333.4506883809954,1333.9355855089962,1333.4506883809954,None,64,21,0,,,14,001,exponential,ybgr,0.75-0.35,2021_May_20_1015,color_judgement_and_subjective_perception,2020.2.10,60.01820664327771,
0,0.75,testing,1000,1,,,,,,,,,0,0,0,0,9,2,38,0,,,,,1334.510303834999,None,d,0.5840649140009191,1334.585694237001,None,1334.0357156870014,1334.4357757729958,1335.183409598998,1335.5356036209996,1335.183409598998,None,59,59,0,,,14,001,exponential,ybgr,0.75-0.35,2021_May_20_1015,color_judgement_and_subjective_perception,2020.2.10,60.01820664327771,
1,0.75,testing,1000,1,,,,,,,,,0,0,0,0,9,3,39,1,,,,,1336.1359153169979,None,f,0.8538894329976756,1336.2358880129977,None,1335.635744883999,1336.0525108000002,1337.120052155995,1337.6202064579993,1337.120052155995,None,0,0,53,,,14,001,exponential,ybgr,0.75-0.35,2021_May_20_1015,color_judgement_and_subjective_perception,2020.2.10,60.01820664327771,
1,0.75,testing,1000,1,,,,,,,,,0,0,0,0,10,0,40,1,,,,,1338.2203626229966,None,f,0.40943794100166997,1338.3203160539997,None,1337.7202243389984,1338.137070842,1338.7534703409983,1339.254041647997,1338.7534703409983,None,0,0,51,,,14,001,exponential,ybgr,0.75-0.35,2021_May_20_1015,color_judgement_and_subjective_perception,2020.2.10,60.01820664327771,
3,0.75,testing,1000,1,,,,,,,,,0,0,0,0,10,1,41,3,,,,,1339.8540127119995,None,k,0.3679410410040873,1339.9538179049996,None,1339.3538969189976,1339.7705927989955,1340.3536175010013,1340.8540864059978,1340.3536175010013,None,59,20,0,,,14,001,exponential,ybgr,0.75-0.35,2021_May_20_1015,color_judgement_and_subjective_perception,2020.2.10,60.01820664327771,
0,0.75,testing,1000,1,,,,,,,,,0,0,0,0,10,2,42,0,,,,,1341.4542588119948,None,j,0.36821877300099004,1341.5455517750015,None,1340.9540030989956,1341.3707858479975,1341.9382273969968,1342.4383857450011,1341.9382273969968,None,54,54,0,,,14,001,exponential,ybgr,0.75-0.35,2021_May_20_1015,color_judgement_and_subjective_perception,2020.2.10,60.01820664327771,
2,0.75,testing,1000,1,,,,,,,,,0,0,0,0,10,3,43,2,,,,,1343.0385829769948,None,j,0.3189081679956871,1343.1388156030007,None,1342.5383799509946,1342.9551966779982,1343.4884159919966,1343.988735989995,1343.4884159919966,None,0,48,0,,,14,001,exponential,ybgr,0.75-0.35,2021_May_20_1015,color_judgement_and_subjective_perception,2020.2.10,60.01820664327771,
3,0.75,testing,1000,1,,,,,,,,,0,0,0,0,11,0,44,3,,,,,1344.5888129259984,None,k,0.4967728560004616,1344.6889770439957,None,1344.088633733998,1344.5055861079964,1345.2054920730006,1345.7054928209982,1345.2054920730006,None,57,19,0,,,14,001,exponential,ybgr,0.75-0.35,2021_May_20_1015,color_judgement_and_subjective_perception,2020.2.10,60.01820664327771,
2,0.75,testing,1000,1,,,,,,,,,0,0,0,0,11,1,45,2,,,,,1346.3056048200015,None,j,0.4279471810004907,1346.4058698439985,None,1345.8055837119973,1346.2223974709996,1346.856527236996,1347.356830869001,1346.856527236996,None,0,47,0,,,14,001,exponential,ybgr,0.75-0.35,2021_May_20_1015,color_judgement_and_subjective_perception,2020.2.10,60.01820664327771,
1,0.75,testing,1000,1,,,,,,,,,0,0,0,0,11,2,46,1,,,,,1347.9567549179992,None,f,0.6487335530036944,1348.0569865200014,None,1347.456611759997,1347.8733538849992,1348.7234784659959,1349.2239079499996,1348.7234784659959,None,0,0,46,,,14,001,exponential,ybgr,0.75-0.35,2021_May_20_1015,color_judgement_and_subjective_perception,2020.2.10,60.01820664327771,
0,0.75,testing,1000,1,,,,,,,,,0,0,0,0,11,3,47,0,,,,,1349.8238139509995,None,d,0.485933941003168,1349.9237800429983,None,1349.323716492996,1349.7403669319974,1350.4403638160002,1350.940655243001,1350.4403638160002,None,52,52,0,,,14,001,exponential,ybgr,0.75-0.35,2021_May_20_1015,color_judgement_and_subjective_perception,2020.2.10,60.01820664327771,
2,0.75,testing,1000,1,,,,,,,,,0,0,0,0,12,0,48,2,,,,,1351.5393363629992,None,None,-1,1351.6249476250014,None,1351.0405053180002,1351.4572742449964,1352.5414990389982,1353.0416793209952,1352.5414990389982,None,0,43,0,,,14,001,exponential,ybgr,0.75-0.35,2021_May_20_1015,color_judgement_and_subjective_perception,2020.2.10,60.01820664327771,
0,0.75,testing,1000,1,,,,,,,,,0,0,0,0,12,1,49,0,,,,,1353.641764341999,None,f,0.47582844299904536,1353.7419266849975,None,1353.1416010920002,1353.5585100829994,1354.2417852279978,1354.7419871050006,1354.2417852279978,None,53,53,0,,,14,001,exponential,ybgr,0.75-0.35,2021_May_20_1015,color_judgement_and_subjective_perception,2020.2.10,60.01820664327771,
1,0.75,testing,1000,1,,,,,,,,,0,0,0,0,12,2,50,1,,,,,1355.3421130709976,None,f,0.4399375649954891,1355.4417989879948,None,1354.8417326470008,1355.2587593019998,1355.908641301001,1356.4089818680004,1355.908641301001,None,0,0,45,,,14,001,exponential,ybgr,0.75-0.35,2021_May_20_1015,color_judgement_and_subjective_perception,2020.2.10,60.01820664327771,
3,0.75,testing,1000,1,,,,,,,,,0,0,0,0,12,3,51,3,,,,,1356.9931838369957,None,k,0.30859212599898456,1357.0931720259978,None,1356.508858330999,1356.9098633459944,1357.4264493839946,1357.926524292001,1357.4264493839946,None,55,18,0,,,14,001,exponential,ybgr,0.75-0.35,2021_May_20_1015,color_judgement_and_subjective_perception,2020.2.10,60.01820664327771,
3,0.75,testing,1000,1,,,,,,,,,0,0,0,0,13,0,52,3,,,,,1358.526737881999,None,k,0.41500554099911824,1358.6267642349994,None,1358.0266126689967,1358.4434643679997,1359.0600616070005,1359.5603434009972,1359.0600616070005,None,55,18,0,,,14,001,exponential,ybgr,0.75-0.35,2021_May_20_1015,color_judgement_and_subjective_perception,2020.2.10,60.01820664327771,
1,0.75,testing,1000,1,,,,,,,,,0,0,0,0,13,1,53,1,,,,,1360.1603455519944,None,f,0.28543990199978,1360.2603099949993,None,1359.6601472129987,1360.0769133110007,1360.5768447199953,1361.0770594989954,1360.5768447199953,None,0,0,45,,,14,001,exponential,ybgr,0.75-0.35,2021_May_20_1015,color_judgement_and_subjective_perception,2020.2.10,60.01820664327771,
0,0.75,testing,1000,1,,,,,,,,,0,0,0,0,13,2,54,0,,,,,1361.6613579119949,None,d,0.44044426700565964,1361.7613348009982,None,1361.1770361259987,1361.5778518849984,1362.2280323669984,1362.7280942599973,1362.2280323669984,None,55,55,0,,,14,001,exponential,ybgr,0.75-0.35,2021_May_20_1015,color_judgement_and_subjective_perception,2020.2.10,60.01820664327771,
2,0.75,testing,1000,1,,,,,,,,,0,0,0,0,13,3,55,2,,,,,1363.3284140949982,None,j,0.5895139179992839,1363.4282237039952,None,1362.8281402290013,1363.2448722319969,1364.0449573529986,1364.5450037289993,1364.0449573529986,None,0,45,0,,,14,001,exponential,ybgr,0.75-0.35,2021_May_20_1015,color_judgement_and_subjective_perception,2020.2.10,60.01820664327771,
0,0.75,testing,1000,1,,,,,,,,,0,0,0,0,14,0,56,0,,,,,1365.1450900899945,None,d,0.500500820002344,1365.245193951996,None,1364.645117340995,1365.0617325529965,1365.7783910200014,1366.278775670995,1365.7783910200014,None,54,54,0,,,14,001,exponential,ybgr,0.75-0.35,2021_May_20_1015,color_judgement_and_subjective_perception,2020.2.10,60.01820664327771,
2,0.75,testing,1000,1,,,,,,,,,0,0,0,0,14,1,57,2,,,,,1366.8629467089995,None,j,0.6867406099991058,1366.9630136060005,None,1366.3786905489978,1366.7797024399988,1367.6794297669985,1368.179773224998,1367.6794297669985,None,0,44,0,,,14,001,exponential,ybgr,0.75-0.35,2021_May_20_1015,color_judgement_and_subjective_perception,2020.2.10,60.01820664327771,
3,0.75,testing,1000,1,,,,,,,,,0,0,0,0,14,2,58,3,,,,,1368.7799833399986,None,k,0.3938010209967615,1368.8800153010015,None,1368.2797525770002,1368.6966546539988,1369.2966738589967,1369.7967675229957,1369.2966738589967,None,48,16,0,,,14,001,exponential,ybgr,0.75-0.35,2021_May_20_1015,color_judgement_and_subjective_perception,2020.2.10,60.01820664327771,
1,0.75,testing,1000,1,,,,,,,,,0,0,0,0,14,3,59,1,,,,,1370.3969463969988,None,f,0.44105363199923886,1370.4967587930005,None,1369.8966289589953,1370.3133583029994,1370.963375970001,1371.4635927489944,1370.963375970001,None,0,0,38,,,14,001,exponential,ybgr,0.75-0.35,2021_May_20_1015,color_judgement_and_subjective_perception,2020.2.10,60.01820664327771,
2,0.75,testing,1000,1,,,,,,,,,0,0,0,0,15,0,60,2,,,,,1372.0480299970004,None,j,0.48587026099994546,1372.147886476996,None,1371.5565486499981,1371.9646441959994,1372.6644592079974,1373.1646317849954,1372.6644592079974,None,0,40,0,,,14,001,exponential,ybgr,0.75-0.35,2021_May_20_1015,color_judgement_and_subjective_perception,2020.2.10,60.01820664327771,
3,0.75,testing,1000,1,,,,,,,,,0,0,0,0,15,1,61,3,,,,,1373.764567585,None,k,0.4246333400005824,1373.8649895989947,None,1373.2645268630004,1373.6813172589973,1374.3146007210016,1374.8150118659978,1374.3146007210016,None,44,15,0,,,14,001,exponential,ybgr,0.75-0.35,2021_May_20_1015,color_judgement_and_subjective_perception,2020.2.10,60.01820664327771,
0,0.75,testing,1000,1,,,,,,,,,0,0,0,0,15,2,62,0,,,,,1375.415084053995,None,d,0.5825434970029164,1375.5151849579997,None,1374.9149134690015,1375.3317308159967,1376.1149549809998,1376.5993654490012,1376.1149549809998,None,49,49,0,,,14,001,exponential,ybgr,0.75-0.35,2021_May_20_1015,color_judgement_and_subjective_perception,2020.2.10,60.01820664327771,
1,0.75,testing,1000,1,,,,,,,,,0,0,0,0,15,3,63,1,,,,,1377.199221349998,None,j,0.3743932989964378,1377.299402423996,None,1376.699497321999,1377.1163773750013,1377.6993542739947,1378.1995552269946,1377.6993542739947,None,0,0,33,,,14,001,exponential,ybgr,0.75-0.35,2021_May_20_1015,color_judgement_and_subjective_perception,2020.2.10,60.01820664327771,
1,0.75,testing,1000,1,,,,,,,,,0,0,0,0,16,0,64,1,,,,,1378.7998200729999,None,f,0.5180311520016403,1378.8997316940004,None,1378.299544556001,1378.7164624669967,1379.4496441149968,1379.9499204530002,1379.4496441149968,None,0,0,35,,,14,001,exponential,ybgr,0.75-0.35,2021_May_20_1015,color_judgement_and_subjective_perception,2020.2.10,60.01820664327771,
2,0.75,testing,1000,1,,,,,,,,,0,0,0,0,16,1,65,2,,,,,1380.5500241129994,None,j,0.7757561969992821,1380.6500347679976,None,1380.0499117479994,1380.4666314189963,1381.4498737319955,1381.934406253,1381.4498737319955,None,0,36,0,,,14,001,exponential,ybgr,0.75-0.35,2021_May_20_1015,color_judgement_and_subjective_perception,2020.2.10,60.01820664327771,
0,0.75,testing,1000,1,,,,,,,,,0,0,0,0,16,2,66,0,,,,,1382.5344528959977,None,d,0.503042557000299,1382.6347381140004,None,1382.0343660619983,1382.451131885995,1383.1677378909953,1383.6679603449957,1383.1677378909953,None,46,46,0,,,14,001,exponential,ybgr,0.75-0.35,2021_May_20_1015,color_judgement_and_subjective_perception,2020.2.10,60.01820664327771,
3,0.75,testing,1000,1,,,,,,,,,0,0,0,0,16,3,67,3,,,,,1384.2679434129968,None,k,0.5537811680042068,1384.3679869219995,None,1383.7679481410014,1384.1847820440016,1384.9513169829952,1385.451484707999,1384.9513169829952,None,39,13,0,,,14,001,exponential,ybgr,0.75-0.35,2021_May_20_1015,color_judgement_and_subjective_perception,2020.2.10,60.01820664327771,
3,0.75,testing,1000,1,,,,,,,,,0,0,0,0,17,0,68,3,,,,,1386.051605734996,None,k,0.3220130639965646,1386.1517492079947,None,1385.5514516469993,1385.9684118730002,1386.501634782995,1386.9858864459966,1386.501634782995,None,37,12,0,,,14,001,exponential,ybgr,0.75-0.35,2021_May_20_1015,color_judgement_and_subjective_perception,2020.2.10,60.01820664327771,
2,0.75,testing,1000,1,,,,,,,,,0,0,0,0,17,1,69,2,,,,,1387.5858475529967,None,f,0.4835845679990598,1387.6860780989955,None,1387.085928223998,1387.5028391800006,1388.202603630998,1388.7028937789946,1388.202603630998,None,0,31,0,,,14,001,exponential,ybgr,0.75-0.35,2021_May_20_1015,color_judgement_and_subjective_perception,2020.2.10,60.01820664327771,
1,0.75,testing,1000,1,,,,,,,,,0,0,0,0,17,2,70,1,,,,,1389.3030708649967,None,f,0.7427668730015284,1389.4030058879944,None,1388.802769582995,1389.219776316997,1390.1695980519944,1390.6698790179944,1390.1695980519944,None,0,0,30,,,14,001,exponential,ybgr,0.75-0.35,2021_May_20_1015,color_judgement_and_subjective_perception,2020.2.10,60.01820664327771,
0,0.75,testing,1000,1,,,,,,,,,0,0,0,0,17,3,71,0,,,,,1391.2700722859954,None,j,0.7356808120021014,1391.3700564539977,None,1390.7696632799998,1391.186619303,1392.1372693809972,1392.6375777619978,1392.1372693809972,None,42,42,0,,,14,001,exponential,ybgr,0.75-0.35,2021_May_20_1015,color_judgement_and_subjective_perception,2020.2.10,60.01820664327771,
0,0.75,testing,1000,1,,,,,,,,,0,0,0,0,18,0,72,0,,,,,1393.2376315039946,None,d,0.4800946040049894,1393.3376790819966,None,1392.7373362360013,1393.1542520000003,1393.8376222419975,1394.3379322959954,1393.8376222419975,None,44,44,0,,,14,001,exponential,ybgr,0.75-0.35,2021_May_20_1015,color_judgement_and_subjective_perception,2020.2.10,60.01820664327771,
2,0.75,testing,1000,1,,,,,,,,,0,0,0,0,18,1,73,2,,,,,1394.938032113998,None,j,0.5798116160003701,1395.0379598849977,None,1394.4378859459976,1394.8546708909998,1395.6379480929972,1396.1381471169952,1395.6379480929972,None,0,34,0,,,14,001,exponential,ybgr,0.75-0.35,2021_May_20_1015,color_judgement_and_subjective_perception,2020.2.10,60.01820664327771,
1,0.75,testing,1000,1,,,,,,,,,0,0,0,0,18,2,74,1,,,,,1396.7223740949994,None,f,0.4114402319974033,1396.8223903319958,None,1396.238056821996,1396.6389590539984,1397.2556388589946,1397.7560069199972,1397.2556388589946,None,0,0,29,,,14,001,exponential,ybgr,0.75-0.35,2021_May_20_1015,color_judgement_and_subjective_perception,2020.2.10,60.01820664327771,
3,0.75,testing,1000,1,,,,,,,,,0,0,0,0,18,3,75,3,,,,,1398.3559377269994,None,k,0.36989733100199373,1398.4559109789989,None,1397.855863386998,1398.2726386569993,1398.8559279909969,1399.3563148409958,1398.8559279909969,None,35,12,0,,,14,001,exponential,ybgr,0.75-0.35,2021_May_20_1015,color_judgement_and_subjective_perception,2020.2.10,60.01820664327771,
3,0.75,testing,1000,1,,,,,,,,,0,0,0,0,19,0,76,3,,,,,1399.9562126809979,None,k,0.4815845840057591,1400.0561633799953,None,1399.4558562870006,1399.8728412919954,1400.5562775279977,1401.0564437840003,1400.5562775279977,None,33,11,0,,,14,001,exponential,ybgr,0.75-0.35,2021_May_20_1015,color_judgement_and_subjective_perception,2020.2.10,60.01820664327771,
2,0.75,testing,1000,1,,,,,,,,,0,0,0,0,19,1,77,2,,,,,1401.640658395998,None,j,0.885197611998592,1401.740589971996,None,1401.1564238950014,1401.5645252850009,1402.6571191159965,1403.157541957,1402.6571191159965,None,0,31,0,,,14,001,exponential,ybgr,0.75-0.35,2021_May_20_1015,color_judgement_and_subjective_perception,2020.2.10,60.01820664327771,
0,0.75,testing,1000,1,,,,,,,,,0,0,0,0,19,2,78,0,,,,,1403.757624218997,None,j,0.5760152610018849,1403.8577531759947,None,1403.2574445249993,1403.674306148001,1404.4576289260003,1404.957733534,1404.4576289260003,None,41,41,0,,,14,001,exponential,ybgr,0.75-0.35,2021_May_20_1015,color_judgement_and_subjective_perception,2020.2.10,60.01820664327771,
1,0.75,testing,1000,1,,,,,,,,,0,0,0,0,19,3,79,1,,,,,1405.5578593409955,None,j,0.3999631210026564,1405.6577674660002,None,1405.0576038159998,1405.4745608640005,1406.074437880001,1406.5659070729962,1406.074437880001,None,0,0,25,,,14,001,exponential,ybgr,0.75-0.35,2021_May_20_1015,color_judgement_and_subjective_perception,2020.2.10,60.01820664327771,
0,0.75,testing,1000,1,,,,,,,,,0,0,0,0,20,0,80,0,,,,,1407.1589725049998,None,j,0.5588065080009983,1407.258955088997,None,1406.6588684859962,1407.0757543689979,1407.842201239997,1408.3423693809964,1407.842201239997,None,44,44,0,,,14,001,exponential,ybgr,0.75-0.35,2021_May_20_1015,color_judgement_and_subjective_perception,2020.2.10,60.01820664327771,
3,0.75,testing,1000,1,,,,,,,,,0,0,0,0,20,1,81,3,,,,,1408.9427198599951,None,k,0.5109895720015629,1409.0426788359982,None,1408.4422890329952,1408.8592891429944,1409.5759195029968,1410.0760660800006,1409.5759195029968,None,33,11,0,,,14,001,exponential,ybgr,0.75-0.35,2021_May_20_1015,color_judgement_and_subjective_perception,2020.2.10,60.01820664327771,
1,0.75,testing,1000,1,,,,,,,,,0,0,0,0,20,2,82,1,,,,,1410.676179379996,None,f,0.5215749700000742,1410.7761378779978,None,1410.17598018,1410.592727561998,1411.326115249998,1411.8104761079958,1411.326115249998,None,0,0,29,,,14,001,exponential,ybgr,0.75-0.35,2021_May_20_1015,color_judgement_and_subjective_perception,2020.2.10,60.01820664327771,
2,0.75,testing,1000,1,,,,,,,,,0,0,0,0,20,3,83,2,,,,,1412.4104293319979,None,j,0.45115492200420704,1412.5105861369957,None,1411.9106197449946,1412.3270410229961,1412.9937859929996,1413.4940741440005,1412.9937859929996,None,0,34,0,,,14,001,exponential,ybgr,0.75-0.35,2021_May_20_1015,color_judgement_and_subjective_perception,2020.2.10,60.01820664327771,
3,0.75,testing,1000,1,,,,,,,,,0,0,0,0,21,0,84,3,,,,,1414.094177355997,None,None,-1,1414.1943043879946,None,1413.593971246999,1414.0108821649992,1415.1107882259967,1415.6110114889962,1415.1107882259967,None,33,11,0,,,14,001,exponential,ybgr,0.75-0.35,2021_May_20_1015,color_judgement_and_subjective_perception,2020.2.10,60.01820664327771,
1,0.75,testing,1000,1,,,,,,,,,0,0,0,0,21,1,85,1,,,,,1416.2110943419975,None,f,0.5225556469958974,1416.3112056300015,None,1415.7108456339993,1416.1278040499965,1416.8618619379995,1417.3623685209968,1416.8618619379995,None,0,0,31,,,14,001,exponential,ybgr,0.75-0.35,2021_May_20_1015,color_judgement_and_subjective_perception,2020.2.10,60.01820664327771,
0,0.75,testing,1000,1,,,,,,,,,0,0,0,0,21,2,86,0,,,,,1417.9621925139945,None,d,0.587581494000915,1418.0622130810007,None,1417.462072729999,1417.8788661259969,1418.678903848995,1419.1791784129964,1418.678903848995,None,49,49,0,,,14,001,exponential,ybgr,0.75-0.35,2021_May_20_1015,color_judgement_and_subjective_perception,2020.2.10,60.01820664327771,
2,0.75,testing,1000,1,,,,,,,,,0,0,0,0,21,3,87,2,,,,,1419.7793459919994,None,j,0.5225631319990498,1419.879230036,None,1419.2790066099988,1419.6958909089954,1420.4291198270002,1420.9294124459993,1420.4291198270002,None,0,33,0,,,14,001,exponential,ybgr,0.75-0.35,2021_May_20_1015,color_judgement_and_subjective_perception,2020.2.10,60.01820664327771,
0,0.75,testing,1000,1,,,,,,,,,0,0,0,0,22,0,88,0,,,,,1421.5294586109958,None,j,0.4681905600009486,1421.6135784569997,None,1421.029306477998,1421.4462044370011,1422.1135536649963,1422.6137036899963,1422.1135536649963,None,48,48,0,,,14,001,exponential,ybgr,0.75-0.35,2021_May_20_1015,color_judgement_and_subjective_perception,2020.2.10,60.01820664327771,
3,0.75,testing,1000,1,,,,,,,,,0,0,0,0,22,1,89,3,,,,,1423.213667553995,None,k,0.4321077429995057,1423.3137031509978,None,1422.7137844940007,1423.1305713670008,1423.7637395889979,1424.2641008380015,1423.7637395889979,None,35,12,0,,,14,001,exponential,ybgr,0.75-0.35,2021_May_20_1015,color_judgement_and_subjective_perception,2020.2.10,60.01820664327771,
1,0.75,testing,1000,1,,,,,,,,,0,0,0,0,22,2,90,1,,,,,1424.864109604001,None,f,0.4617938870069338,1424.9639620289963,None,1424.3639361120004,1424.7807367579953,1425.4474521029988,1425.9476979229948,1425.4474521029988,None,0,0,31,,,14,001,exponential,ybgr,0.75-0.35,2021_May_20_1015,color_judgement_and_subjective_perception,2020.2.10,60.01820664327771,
2,0.75,testing,1000,1,,,,,,,,,0,0,0,0,22,3,91,2,,,,,1426.5476574150016,None,j,0.4898849099990912,1426.6319026939964,None,1426.047542237,1426.464306157999,1427.148531203995,1427.648785624995,1427.148531203995,None,0,32,0,,,14,001,exponential,ybgr,0.75-0.35,2021_May_20_1015,color_judgement_and_subjective_perception,2020.2.10,60.01820664327771,
0,0.75,testing,1000,1,,,,,,,,,0,0,0,0,23,0,92,0,,,,,1428.2488148150005,None,f,0.5490184759983094,1428.3487331259967,None,1427.7485324109948,1428.1653431339946,1428.9155188820005,1429.415498315997,1428.9155188820005,None,49,49,0,,,14,001,exponential,ybgr,0.75-0.35,2021_May_20_1015,color_judgement_and_subjective_perception,2020.2.10,60.01820664327771,
2,0.75,testing,1000,1,,,,,,,,,0,0,0,0,23,1,93,2,,,,,1430.0156665089962,None,f,0.7819920479960274,1430.1157845779962,None,1429.5155548589973,1429.9323930839964,1430.9156516549992,1431.4158618789952,1430.9156516549992,None,0,31,0,,,14,001,exponential,ybgr,0.75-0.35,2021_May_20_1015,color_judgement_and_subjective_perception,2020.2.10,60.01820664327771,
1,0.75,testing,1000,1,,,,,,,,,0,0,0,0,23,2,94,1,,,,,1432.000229790996,None,f,0.6774498009981471,1432.1002097230012,None,1431.5158025630008,1431.9168029700013,1432.799956347997,1433.3002459560012,1432.799956347997,None,0,0,30,,,14,001,exponential,ybgr,0.75-0.35,2021_May_20_1015,color_judgement_and_subjective_perception,2020.2.10,60.01820664327771,
3,0.75,testing,1000,1,,,,,,,,,0,0,0,0,23,3,95,3,,,,,1433.9006035549974,None,k,0.4730992580007296,1434.0006336299994,None,1433.4001567879968,1433.8171135890007,1434.5004601969995,1435.0005591669978,1434.5004601969995,None,36,12,0,,,14,001,exponential,ybgr,0.75-0.35,2021_May_20_1015,color_judgement_and_subjective_perception,2020.2.10,60.01820664327771,
0,0.75,testing,1000,1,,,,,,,,,0,0,0,0,,,,,0,0,0,0,1441.2690279320013,None,d,0.4808125899944571,1441.3689423809992,None,1440.7690066809955,1441.1857498549944,1441.8708455929955,1442.370036002998,1441.8708455929955,None,54,54,0,1435.1125983599995,None,14,001,exponential,ybgr,0.75-0.35,2021_May_20_1015,color_judgement_and_subjective_perception,2020.2.10,60.01820664327771,
1,0.75,testing,1000,1,,,,,,,,,0,0,0,0,,,,,0,1,1,1,1442.9699501459982,None,j,0.49959702000342077,1443.0701322249952,None,1442.4697913599957,1442.8867549829956,1443.5891327579957,1444.0870792290007,1443.5891327579957,None,0,0,30,None,None,14,001,exponential,ybgr,0.75-0.35,2021_May_20_1015,color_judgement_and_subjective_perception,2020.2.10,60.01820664327771,
3,0.75,testing,1000,1,,,,,,,,,0,0,0,0,,,,,0,2,2,3,1444.6871719310002,None,k,0.5347586710049654,1444.7869607389948,None,1444.1868965169997,1444.603773830997,1445.3550537449992,1445.853748964997,1445.3550537449992,None,36,12,0,None,None,14,001,exponential,ybgr,0.75-0.35,2021_May_20_1015,color_judgement_and_subjective_perception,2020.2.10,60.01820664327771,
0,0.75,testing,1000,1,,,,,,,,,0,0,0,0,,,,,0,3,3,0,1446.4539845949985,None,f,0.5117591280068154,1446.5538844839975,None,1445.9537409409968,1446.3707042140013,1447.089761698,1447.5883294160012,1447.089761698,None,54,54,0,None,None,14,001,exponential,ybgr,0.75-0.35,2021_May_20_1015,color_judgement_and_subjective_perception,2020.2.10,60.01820664327771,
1,0.75,testing,1000,1,,,,,,,,,0,0,0,0,,,,,1,0,4,1,1448.1886234289996,None,f,0.48924145699857036,1448.2885141519946,None,1447.6880369220016,1448.1049843,1448.8067175280012,1449.3052016529982,1448.8067175280012,None,0,0,34,None,None,14,001,exponential,ybgr,0.75-0.35,2021_May_20_1015,color_judgement_and_subjective_perception,2020.2.10,60.01820664327771,
3,0.75,testing,1000,1,,,,,,,,,0,0,0,0,,,,,1,1,5,3,1449.9052642919996,None,k,0.4123415700014448,1450.0054171609954,None,1449.4051304809982,1449.8219625569982,1450.4385694379962,1450.938805906997,1450.4385694379962,None,38,13,0,None,None,14,001,exponential,ybgr,0.75-0.35,2021_May_20_1015,color_judgement_and_subjective_perception,2020.2.10,60.01820664327771,
2,0.75,testing,1000,1,,,,,,,,,0,0,0,0,,,,,1,2,6,2,1451.5389144059955,None,j,0.3705172429981758,1451.623234050996,None,1451.038625108995,1451.4557497299975,1452.0230432690005,1452.523079708997,1452.0230432690005,None,0,39,0,None,None,14,001,exponential,ybgr,0.75-0.35,2021_May_20_1015,color_judgement_and_subjective_perception,2020.2.10,60.01820664327771,
1,0.75,testing,1000,1,,,,,,,,,0,0,0,0,,,,,1,3,7,1,1453.1234255669988,None,j,0.5704663430005894,1453.223273742995,None,1452.623065750995,1453.0399703399962,1453.8254630750016,1454.3236110709986,1453.8254630750016,None,0,0,36,None,None,14,001,exponential,ybgr,0.75-0.35,2021_May_20_1015,color_judgement_and_subjective_perception,2020.2.10,60.01820664327771,
3,0.75,testing,1000,1,,,,,,,,,0,0,0,0,,,,,2,0,8,3,1454.923562844997,None,k,0.5541524059954099,1455.0236068509985,None,1454.4233343000014,1454.8401634350012,1455.6086242439997,1456.1070675329975,1455.6086242439997,None,38,13,0,None,None,14,001,exponential,ybgr,0.75-0.35,2021_May_20_1015,color_judgement_and_subjective_perception,2020.2.10,60.01820664327771,
0,0.75,testing,1000,1,,,,,,,,,0,0,0,0,,,,,2,1,9,0,1456.6912291679982,None,d,0.554522132006241,1456.7912692120008,None,1456.2068638099954,1456.608049397997,1457.3746152839958,1457.874803521001,1457.3746152839958,None,59,59,0,None,None,14,001,exponential,ybgr,0.75-0.35,2021_May_20_1015,color_judgement_and_subjective_perception,2020.2.10,60.01820664327771,
2,0.75,testing,1000,1,,,,,,,,,0,0,0,0,,,,,2,2,10,2,1458.4748619300008,None,j,0.3707501860044431,1458.575028364001,None,1457.9746534559963,1458.3915747079955,1458.9748772629973,1459.4750242419977,1458.9748772629973,None,0,38,0,None,None,14,001,exponential,ybgr,0.75-0.35,2021_May_20_1015,color_judgement_and_subjective_perception,2020.2.10,60.01820664327771,
2,0.75,testing,1000,1,,,,,,,,,0,0,0,0,,,,,2,3,11,2,1460.0751493790012,None,j,0.8505815870012157,1460.1751147210016,None,1459.5749469259972,1459.991834292996,1461.0585596640012,1461.558632002998,1461.0585596640012,None,0,36,0,None,None,14,001,exponential,ybgr,0.75-0.35,2021_May_20_1015,color_judgement_and_subjective_perception,2020.2.10,60.01820664327771,
1,0.75,testing,1000,1,,,,,,,,,0,0,0,0,,,,,3,0,12,1,1462.1429317369984,None,f,0.35898488300153986,1462.242774197999,None,1461.6426526709984,1462.0596714709973,1462.6263996720008,1463.1264464069973,1462.6263996720008,None,0,0,36,None,None,14,001,exponential,ybgr,0.75-0.35,2021_May_20_1015,color_judgement_and_subjective_perception,2020.2.10,60.01820664327771,
1,0.75,testing,1000,1,,,,,,,,,0,0,0,0,,,,,3,1,13,1,1463.7265929249988,None,f,0.42311372899712296,1463.8266559219992,None,1463.2263076169984,1463.6432873480007,1464.2766388419986,1464.7765832279983,1464.2766388419986,None,0,0,36,None,None,14,001,exponential,ybgr,0.75-0.35,2021_May_20_1015,color_judgement_and_subjective_perception,2020.2.10,60.01820664327771,
0,0.75,testing,1000,1,,,,,,,,,0,0,0,0,,,,,3,2,14,0,1465.3765662119986,None,d,0.3329531950003002,1465.4767921230014,None,1464.8766322079973,1465.2935794660007,1465.8270612589986,1466.3269431929948,1465.8270612589986,None,55,55,0,None,None,14,001,exponential,ybgr,0.75-0.35,2021_May_20_1015,color_judgement_and_subjective_perception,2020.2.10,60.01820664327771,
0,0.75,testing,1000,1,,,,,,,,,0,0,0,0,,,,,3,3,15,0,1466.911316065998,None,d,0.5265703410041169,1467.011207038995,None,1466.426713476998,1466.8278258099963,1467.561068776995,1468.061280556998,1467.561068776995,None,55,55,0,None,None,14,001,exponential,ybgr,0.75-0.35,2021_May_20_1015,color_judgement_and_subjective_perception,2020.2.10,60.01820664327771,
1,0.75,testing,1000,1,,,,,,,,,0,0,0,0,,,,,4,0,16,1,1468.661497535999,None,j,0.7523024519978208,1468.7614906249946,None,1468.1611643129945,1468.5780424209952,1469.546657382998,1470.044979997001,1469.546657382998,None,0,0,32,None,None,14,001,exponential,ybgr,0.75-0.35,2021_May_20_1015,color_judgement_and_subjective_perception,2020.2.10,60.01820664327771,
1,0.75,testing,1000,1,,,,,,,,,0,0,0,0,,,,,4,1,17,1,1470.6451159349963,None,f,0.5847089739982039,1470.7450050539992,None,1470.1448707109957,1470.5617576279983,1471.3633746880005,1471.8461520889978,1471.3633746880005,None,0,0,34,None,None,14,001,exponential,ybgr,0.75-0.35,2021_May_20_1015,color_judgement_and_subjective_perception,2020.2.10,60.01820664327771,
0,0.75,testing,1000,1,,,,,,,,,0,0,0,0,,,,,4,2,18,0,1472.4460640389952,None,d,0.7436213969995151,1472.5461612500003,None,1471.9458026779976,1472.362788694998,1473.312737977998,1473.8130749279953,1473.312737977998,None,53,53,0,None,None,14,001,exponential,ybgr,0.75-0.35,2021_May_20_1015,color_judgement_and_subjective_perception,2020.2.10,60.01820664327771,
1,0.75,testing,1000,1,,,,,,,,,0,0,0,0,,,,,4,3,19,1,1474.413223245996,None,f,0.5285745090004639,1474.5132191189987,None,1473.9129767889972,1474.3299637460004,1475.0631257149944,1475.5632589089946,1475.0631257149944,None,0,0,33,None,None,14,001,exponential,ybgr,0.75-0.35,2021_May_20_1015,color_judgement_and_subjective_perception,2020.2.10,60.01820664327771,
0,0.75,testing,1000,1,,,,,,,,,0,0,0,0,,,,,5,0,20,0,1476.1634428260004,None,d,0.6661303440050688,1476.2635433609976,None,1475.6631550780003,1476.0801621459977,1476.9483763949975,1477.4479392930007,1476.9483763949975,None,50,50,0,None,None,14,001,exponential,ybgr,0.75-0.35,2021_May_20_1015,color_judgement_and_subjective_perception,2020.2.10,60.01820664327771,
0,0.75,testing,1000,1,,,,,,,,,0,0,0,0,,,,,5,1,21,0,1478.0477455229993,None,f,0.46199900999636156,1478.147812354,None,1477.5474926620009,1477.964378730001,1478.6326771099993,1479.1313923880007,1478.6326771099993,None,48,48,0,None,None,14,001,exponential,ybgr,0.75-0.35,2021_May_20_1015,color_judgement_and_subjective_perception,2020.2.10,60.01820664327771,
2,0.75,testing,1000,1,,,,,,,,,0,0,0,0,,,,,5,2,22,2,1479.731484195996,None,f,0.6343676510005025,1479.8314009899987,None,1479.2312456930013,1479.648115183998,1480.498016517995,1480.9982258679956,1480.498016517995,None,0,28,0,None,None,14,001,exponential,ybgr,0.75-0.35,2021_May_20_1015,color_judgement_and_subjective_perception,2020.2.10,60.01820664327771,
2,0.75,testing,1000,1,,,,,,,,,0,0,0,0,,,,,5,3,23,2,1481.5897673029976,None,j,0.7753150610005832,1481.682484758996,None,1481.0981634499985,1481.5151577860015,1482.4844743299982,1482.9827297099982,1482.4844743299982,None,0,30,0,None,None,14,001,exponential,ybgr,0.75-0.35,2021_May_20_1015,color_judgement_and_subjective_perception,2020.2.10,60.01820664327771,
1,0.75,testing,1000,1,,,,,,,,,0,0,0,0,,,,,6,0,24,1,1483.5827755499995,None,f,0.4628601600052207,1483.6829057639989,None,1483.0824760889955,1483.4996790840014,1484.1662351609993,1484.6664642219985,1484.1662351609993,None,0,0,33,None,None,14,001,exponential,ybgr,0.75-0.35,2021_May_20_1015,color_judgement_and_subjective_perception,2020.2.10,60.01820664327771,
2,0.75,testing,1000,1,,,,,,,,,0,0,0,0,,,,,6,1,25,2,1485.266509354995,None,f,0.46726803299679887,1485.366428934998,None,1484.7662489520008,1485.1830711840012,1485.8678868149946,1486.3667063589965,1485.8678868149946,None,0,33,0,None,None,14,001,exponential,ybgr,0.75-0.35,2021_May_20_1015,color_judgement_and_subjective_perception,2020.2.10,60.01820664327771,
2,0.75,testing,1000,1,,,,,,,,,0,0,0,0,,,,,6,2,26,2,1486.9508592860002,None,j,0.6148331309959758,1487.050936006999,None,1486.4663922939944,1486.8674381999954,1487.6858806439996,1488.184300945999,1487.6858806439996,None,0,35,0,None,None,14,001,exponential,ybgr,0.75-0.35,2021_May_20_1015,color_judgement_and_subjective_perception,2020.2.10,60.01820664327771,
0,0.75,testing,1000,1,,,,,,,,,0,0,0,0,,,,,6,3,27,0,1488.7845882369948,None,d,0.5812366229947656,1488.8845317519954,None,1488.2842497829988,1488.7010455939962,1489.484529620997,1489.9845976669967,1489.484529620997,None,55,55,0,None,None,14,001,exponential,ybgr,0.75-0.35,2021_May_20_1015,color_judgement_and_subjective_perception,2020.2.10,60.01820664327771,
2,0.75,testing,1000,1,,,,,,,,,0,0,0,0,,,,,7,0,28,2,1490.5848382559998,None,j,0.7490029910040903,1490.6847463539962,None,1490.0845184469945,1490.5013261509957,1491.4515685289953,1491.9359437780004,1491.4515685289953,None,0,36,0,None,None,14,001,exponential,ybgr,0.75-0.35,2021_May_20_1015,color_judgement_and_subjective_perception,2020.2.10,60.01820664327771,
3,0.75,testing,1000,1,,,,,,,,,0,0,0,0,,,,,7,1,29,3,1492.535734737001,None,f,0.4859145529990201,1492.6358495159948,None,1492.0354424670004,1492.4522918689981,1493.1446512059993,1493.619389186999,1493.1446512059993,None,32,11,0,None,None,14,001,exponential,ybgr,0.75-0.35,2021_May_20_1015,color_judgement_and_subjective_perception,2020.2.10,60.01820664327771,
2,0.75,testing,1000,1,,,,,,,,,0,0,0,0,,,,,7,2,30,2,1494.219672086001,None,j,0.6182642709973152,1494.3195494019965,None,1493.719169293996,1494.1363512149983,1494.9635531599997,1495.2624292809996,1494.9635531599997,None,0,35,0,None,None,14,001,exponential,ybgr,0.75-0.35,2021_May_20_1015,color_judgement_and_subjective_perception,2020.2.10,60.01820664327771,
3,0.75,testing,1000,1,,,,,,,,,0,0,0,0,,,,,7,3,31,3,1495.6106170259955,None,None,-1,1495.668158086999,None,1495.3241477560005,1495.5621993099994,1496.3535903589946,1496.8370950979952,1496.3535903589946,None,35,12,0,None,None,14,001,exponential,ybgr,0.75-0.35,2021_May_20_1015,color_judgement_and_subjective_perception,2020.2.10,60.01820664327771,
0,0.75,testing,1000,1,,,,,,,,,0,0,0,0,,,,,8,0,32,0,1497.4373102959944,None,d,0.5603172820046893,1497.537478926999,None,1496.9369557959944,1497.3540567329983,1498.122353437997,1498.6211369609955,1498.122353437997,None,57,57,0,None,None,14,001,exponential,ybgr,0.75-0.35,2021_May_20_1015,color_judgement_and_subjective_perception,2020.2.10,60.01820664327771,
2,0.75,testing,1000,1,,,,,,,,,0,0,0,0,,,,,8,1,33,2,1499.2211210649984,None,j,0.6324781829971471,1499.3212875809986,None,1498.720700976999,1499.1377587210009,1499.9712266089991,1500.4712654769974,1499.9712266089991,None,0,37,0,None,None,14,001,exponential,ybgr,0.75-0.35,2021_May_20_1015,color_judgement_and_subjective_perception,2020.2.10,60.01820664327771,
0,0.75,testing,1000,1,,,,,,,,,0,0,0,0,,,,,8,2,34,0,1501.071332419997,None,d,0.4783691699994961,1501.1713280429976,None,1500.5709891669976,1500.9879158350013,1501.672369230997,1502.1724072819998,1501.672369230997,None,58,58,0,None,None,14,001,exponential,ybgr,0.75-0.35,2021_May_20_1015,color_judgement_and_subjective_perception,2020.2.10,60.01820664327771,
0,0.75,testing,1000,1,,,,,,,,,0,0,0,0,,,,,8,3,35,0,1502.7723804720008,None,f,0.6573297869981616,1502.8724608159973,None,1502.2720902189976,1502.689046389998,1503.5572983759994,1504.0560565199994,1503.5572983759994,None,56,56,0,None,None,14,001,exponential,ybgr,0.75-0.35,2021_May_20_1015,color_judgement_and_subjective_perception,2020.2.10,60.01820664327771,
2,0.75,testing,1000,1,,,,,,,,,0,0,0,0,,,,,9,0,36,2,1504.6559769059968,None,j,0.5976373750017956,1504.7560963249998,None,1504.1557574420003,1504.5728235269999,1505.3743080560016,1505.872860300995,1505.3743080560016,None,0,37,0,None,None,14,001,exponential,ybgr,0.75-0.35,2021_May_20_1015,color_judgement_and_subjective_perception,2020.2.10,60.01820664327771,
1,0.75,testing,1000,1,,,,,,,,,0,0,0,0,,,,,9,1,37,1,1506.4728576889975,None,f,0.5168867910033441,1506.5728935340012,None,1505.9727410549967,1506.3896422149992,1507.1072336590005,1507.6071996760002,1507.1072336590005,None,0,0,39,None,None,14,001,exponential,ybgr,0.75-0.35,2021_May_20_1015,color_judgement_and_subjective_perception,2020.2.10,60.01820664327771,
3,0.75,testing,1000,1,,,,,,,,,0,0,0,0,,,,,9,2,38,3,1508.207433480995,None,k,0.5105055780004477,1508.3072793139945,None,1507.706996369001,1508.1239831389976,1508.8407099229953,1509.3409685250008,1508.8407099229953,None,39,13,0,None,None,14,001,exponential,ybgr,0.75-0.35,2021_May_20_1015,color_judgement_and_subjective_perception,2020.2.10,60.01820664327771,
3,0.75,testing,1000,1,,,,,,,,,0,0,0,0,,,,,9,3,39,3,1509.9409342110011,None,k,0.38479143400036264,1510.0409795629967,None,1509.440787216001,1509.8576315579994,1510.4574258239954,1510.9578295969986,1510.4574258239954,None,39,13,0,None,None,14,001,exponential,ybgr,0.75-0.35,2021_May_20_1015,color_judgement_and_subjective_perception,2020.2.10,60.01820664327771,
3,0.75,testing,1000,1,,,,,,,,,0,0,0,0,,,,,10,0,40,3,1511.5578791259977,None,k,0.35169055300502805,1511.642076252996,None,1511.0576239360016,1511.4746963259968,1512.0254077520003,1512.5255795279954,1512.0254077520003,None,39,13,0,None,None,14,001,exponential,ybgr,0.75-0.35,2021_May_20_1015,color_judgement_and_subjective_perception,2020.2.10,60.01820664327771,
3,0.75,testing,1000,1,,,,,,,,,0,0,0,0,,,,,10,1,41,3,1513.1256338460007,None,k,0.2721709160032333,1513.2255820680002,None,1512.6254523409953,1513.0421453269955,1513.5255307510015,1514.0257756229985,1513.5255307510015,None,37,12,0,None,None,14,001,exponential,ybgr,0.75-0.35,2021_May_20_1015,color_judgement_and_subjective_perception,2020.2.10,60.01820664327771,
0,0.75,testing,1000,1,,,,,,,,,0,0,0,0,,,,,10,2,42,0,1514.6257815659992,None,d,0.36375274299643934,1514.7259926589977,None,1514.1256196089962,1514.542568787001,1515.1091565519964,1515.6092414419982,1515.1091565519964,None,54,54,0,None,None,14,001,exponential,ybgr,0.75-0.35,2021_May_20_1015,color_judgement_and_subjective_perception,2020.2.10,60.01820664327771,
1,0.75,testing,1000,1,,,,,,,,,0,0,0,0,,,,,10,3,43,1,1516.2092901819997,None,f,0.7483568219977315,1516.3093981860002,None,1515.709130616,1516.1260396020007,1517.0769505349963,1517.5771102399958,1517.0769505349963,None,0,0,32,None,None,14,001,exponential,ybgr,0.75-0.35,2021_May_20_1015,color_judgement_and_subjective_perception,2020.2.10,60.01820664327771,
3,0.75,testing,1000,1,,,,,,,,,0,0,0,0,,,,,11,0,44,3,1518.1771545969968,None,None,-1,1518.2771887899944,None,1517.676906009001,1518.0939227630006,1519.194300391995,1519.6941434269975,1519.194300391995,None,33,11,0,None,None,14,001,exponential,ybgr,0.75-0.35,2021_May_20_1015,color_judgement_and_subjective_perception,2020.2.10,60.01820664327771,
2,0.75,testing,1000,1,,,,,,,,,0,0,0,0,,,,,11,1,45,2,1520.2941281239982,None,j,0.6155841860017972,1520.3941546649949,None,1519.7938179010016,1520.2107462139975,1521.0295431839986,1521.527674111996,1521.0295431839986,None,0,31,0,None,None,14,001,exponential,ybgr,0.75-0.35,2021_May_20_1015,color_judgement_and_subjective_perception,2020.2.10,60.01820664327771,
2,0.75,testing,1000,1,,,,,,,,,0,0,0,0,,,,,11,2,46,2,1522.111941889998,None,j,0.4538352300005499,1522.2119069670007,None,1521.6157346409964,1522.028597380995,1522.695100633995,1523.195388567001,1522.695100633995,None,0,29,0,None,None,14,001,exponential,ybgr,0.75-0.35,2021_May_20_1015,color_judgement_and_subjective_perception,2020.2.10,60.01820664327771,
1,0.75,testing,1000,1,,,,,,,,,0,0,0,0,,,,,11,3,47,1,1523.795526390997,None,j,0.8500897759950021,1523.8955533679982,None,1523.2952824429958,1523.7123101920006,1524.7805923159976,1525.2790113759984,1524.7805923159976,None,0,0,29,None,None,14,001,exponential,ybgr,0.75-0.35,2021_May_20_1015,color_judgement_and_subjective_perception,2020.2.10,60.01820664327771,
0,0.75,testing,1000,1,,,,,,,,,0,0,0,0,,,,,12,0,48,0,1525.8791497959974,None,d,0.7266379499997129,1525.9791063449957,None,1525.3788405660016,1525.7958899020014,1526.7315198849974,1527.2301464139964,1526.7315198849974,None,53,53,0,None,None,14,001,exponential,ybgr,0.75-0.35,2021_May_20_1015,color_judgement_and_subjective_perception,2020.2.10,60.01820664327771,
2,0.75,testing,1000,1,,,,,,,,,0,0,0,0,,,,,12,1,49,2,1527.8302248979962,None,None,-1,1527.9303682469981,None,1527.3298817120012,1527.7467724019953,1528.8477558239974,1529.3472989820002,1528.8477558239974,None,0,29,0,None,None,14,001,exponential,ybgr,0.75-0.35,2021_May_20_1015,color_judgement_and_subjective_perception,2020.2.10,60.01820664327771,
2,0.75,testing,1000,1,,,,,,,,,0,0,0,0,,,,,12,2,50,2,1529.9472672470001,None,f,0.5545055100010359,1530.0472419840007,None,1529.4470838749985,1529.8639155630008,1530.6320796590007,1531.1308523240004,1530.6320796590007,None,0,31,0,None,None,14,001,exponential,ybgr,0.75-0.35,2021_May_20_1015,color_judgement_and_subjective_perception,2020.2.10,60.01820664327771,
3,0.75,testing,1000,1,,,,,,,,,0,0,0,0,,,,,12,3,51,3,1531.7151355489987,None,k,0.4985386499974993,1531.815197085998,None,1531.2307178129995,1531.6319062309994,1532.3333636009993,1532.8319082969974,1532.3333636009993,None,37,12,0,None,None,14,001,exponential,ybgr,0.75-0.35,2021_May_20_1015,color_judgement_and_subjective_perception,2020.2.10,60.01820664327771,
1,0.75,testing,1000,1,,,,,,,,,0,0,0,0,,,,,13,0,52,1,1533.431976644999,None,f,0.6297410049955943,1533.5320196889952,None,1532.9315943030015,1533.3485164529993,1534.182110501999,1534.6821246679974,1534.182110501999,None,0,0,35,None,None,14,001,exponential,ybgr,0.75-0.35,2021_May_20_1015,color_judgement_and_subjective_perception,2020.2.10,60.01820664327771,
3,0.75,testing,1000,1,,,,,,,,,0,0,0,0,,,,,13,1,53,3,1535.282270263997,None,f,0.4516333579958882,1535.3821260549958,None,1534.7819816909978,1535.198954253996,1535.867202593996,1536.3657575659963,1535.867202593996,None,40,13,0,None,None,14,001,exponential,ybgr,0.75-0.35,2021_May_20_1015,color_judgement_and_subjective_perception,2020.2.10,60.01820664327771,
1,0.75,testing,1000,1,,,,,,,,,0,0,0,0,,,,,13,2,54,1,1536.9500848929965,None,f,0.5837365379993571,1537.0499613619977,None,1536.4655460499998,1536.8666742189962,1537.6681348639977,1538.1668191459976,1537.6681348639977,None,0,0,36,None,None,14,001,exponential,ybgr,0.75-0.35,2021_May_20_1015,color_judgement_and_subjective_perception,2020.2.10,60.01820664327771,
1,0.75,testing,1000,1,,,,,,,,,0,0,0,0,,,,,13,3,55,1,1538.7668922109951,None,f,0.4787840389981284,1538.8670001099963,None,1538.2665565159987,1538.6836295749963,1539.366978234997,1539.8670657809998,1539.366978234997,None,0,0,36,None,None,14,001,exponential,ybgr,0.75-0.35,2021_May_20_1015,color_judgement_and_subjective_perception,2020.2.10,60.01820664327771,
2,0.75,testing,1000,1,,,,,,,,,0,0,0,0,,,,,14,0,56,2,1540.467247804001,None,j,0.5145863660000032,1540.567151793999,None,1539.9668987879995,1540.383837073001,1541.1004934890007,1541.599424385,1541.1004934890007,None,0,38,0,None,None,14,001,exponential,ybgr,0.75-0.35,2021_May_20_1015,color_judgement_and_subjective_perception,2020.2.10,60.01820664327771,
3,0.75,testing,1000,1,,,,,,,,,0,0,0,0,,,,,14,1,57,3,1542.1848973759988,None,k,0.604770609003026,1542.2849887539996,None,1541.6847233039953,1542.1014917899956,1542.9181419980014,1543.418450334997,1542.9181419980014,None,43,14,0,None,None,14,001,exponential,ybgr,0.75-0.35,2021_May_20_1015,color_judgement_and_subjective_perception,2020.2.10,60.01820664327771,
1,0.75,testing,1000,1,,,,,,,,,0,0,0,0,,,,,14,2,58,1,1544.0186660369945,None,f,0.6592166639966308,1544.1185381999967,None,1543.5182612329954,1543.9353419719992,1544.8017797759967,1545.302060283997,1544.8017797759967,None,0,0,34,None,None,14,001,exponential,ybgr,0.75-0.35,2021_May_20_1015,color_judgement_and_subjective_perception,2020.2.10,60.01820664327771,
0,0.75,testing,1000,1,,,,,,,,,0,0,0,0,,,,,14,3,59,0,1545.902107034999,None,d,0.5356255369988503,1546.0021316380007,None,1545.401791598997,1545.818768555997,1546.5688901299945,1547.0532348479974,1546.5688901299945,None,57,57,0,None,None,14,001,exponential,ybgr,0.75-0.35,2021_May_20_1015,color_judgement_and_subjective_perception,2020.2.10,60.01820664327771,
