color_idx_ind,target_acc,mode,response_deadline,block_number,trials_training.thisRepN,trials_training.thisTrialN,trials_training.thisN,trials_training.thisIndex,trials_training_deadline.thisRepN,trials_training_deadline.thisTrialN,trials_training_deadline.thisN,trials_training_deadline.thisIndex,blocks.thisRepN,blocks.thisTrialN,blocks.thisN,blocks.thisIndex,trials_staircase.thisRepN,trials_staircase.thisTrialN,trials_staircase.thisN,trials_staircase.thisIndex,trials.thisRepN,trials.thisTrialN,trials.thisN,trials.thisIndex,stimulus_ind.started,stimulus_ind.stopped,key_resp_ind.keys,key_resp_ind.rt,key_resp_ind.started,key_resp_ind.stopped,fixation_cross_1_ind.started,fixation_cross_1_ind.stopped,text.started,text.stopped,dummy_text.started,dummy_text.stopped,stim_ind_color_rgb_r,stim_ind_color_rgb_g,stim_ind_color_rgb_b,text_break_block.started,text_break_block.stopped,participant,session,accuracy_weighting,color_mapping,block_difficulties,date,expName,psychopyVersion,frameRate,
0,0.9,training,1000000000000,,0,0,0,0,,,,,,,,,,,,,,,,,119.27866957400693,None,d,1.4368521579963272,119.36283614700369,None,118.78206132200285,119.19535535100295,120.83142887800204,121.3297219140004,120.83142887800204,None,,,,,,15,001,exponential,ybgr,0.35-0.75,2021_May_20_1303,color_judgement_and_subjective_perception,2020.2.10,59.982802212220875,
1,0.9,training,1000000000000,,0,1,1,1,,,,,,,,,,,,,,,,,121.92994482900394,None,f,1.0176903050014516,122.03000058200269,None,121.42986148400087,121.84662408200529,123.07990513800178,123.5801203450028,123.07990513800178,None,,,,,,15,001,exponential,ybgr,0.35-0.75,2021_May_20_1303,color_judgement_and_subjective_perception,2020.2.10,59.982802212220875,
2,0.9,training,1000000000000,,0,2,2,2,,,,,,,,,,,,,,,,,124.18006618900108,None,j,0.671499195996148,124.28021772800275,None,123.68004242100142,124.09690774699993,124.98088248000568,125.48105270700034,124.98088248000568,None,,,,,,15,001,exponential,ybgr,0.35-0.75,2021_May_20_1303,color_judgement_and_subjective_perception,2020.2.10,59.982802212220875,
3,0.9,training,1000000000000,,0,3,3,3,,,,,,,,,,,,,,,,,126.0813074720063,None,k,0.32245056799729355,126.18129951400624,None,125.58110976500029,125.99792457700096,126.53116336700623,127.03155414500361,126.53116336700623,None,,,,,,15,001,exponential,ybgr,0.35-0.75,2021_May_20_1303,color_judgement_and_subjective_perception,2020.2.10,59.982802212220875,
0,0.9,training,1000000000000,,0,4,4,4,,,,,,,,,,,,,,,,,127.63149538100697,None,d,0.5242560020051314,127.73147350100044,None,127.13144319600542,127.54819496900018,128.28138481400674,128.781660010005,128.28138481400674,None,,,,,,15,001,exponential,ybgr,0.35-0.75,2021_May_20_1303,color_judgement_and_subjective_perception,2020.2.10,59.982802212220875,
1,0.9,training,1000000000000,,0,5,5,5,,,,,,,,,,,,,,,,,129.36603746800392,None,f,0.901644439996744,129.4660721810069,None,128.88167604400223,129.298456387005,130.39920420700219,130.89949361500476,130.39920420700219,None,,,,,,15,001,exponential,ybgr,0.35-0.75,2021_May_20_1303,color_judgement_and_subjective_perception,2020.2.10,59.982802212220875,
3,0.9,training,1000000000000,,0,6,6,6,,,,,,,,,,,,,,,,,131.49966391100315,None,k,0.8559781630028738,131.59972195000591,None,130.9994609350033,131.41624405200128,132.48300640399975,132.98299557800055,132.48300640399975,None,,,,,,15,001,exponential,ybgr,0.35-0.75,2021_May_20_1303,color_judgement_and_subjective_perception,2020.2.10,59.982802212220875,
1,0.9,training,1000000000000,,0,7,7,7,,,,,,,,,,,,,,,,,133.58319405100337,None,f,1.124336779001169,133.68336373200145,None,133.08318924500054,133.49991405800392,134.83412676000444,135.3342978590008,134.83412676000444,None,,,,,,15,001,exponential,ybgr,0.35-0.75,2021_May_20_1303,color_judgement_and_subjective_perception,2020.2.10,59.982802212220875,
2,0.9,training,1000000000000,,0,8,8,8,,,,,,,,,,,,,,,,,135.93442152300122,None,j,0.9972638570034178,136.0344463480069,None,135.43430122700374,135.85105301300064,137.05123232200276,137.55128918100672,137.05123232200276,None,,,,,,15,001,exponential,ybgr,0.35-0.75,2021_May_20_1303,color_judgement_and_subjective_perception,2020.2.10,59.982802212220875,
0,0.9,training,1000000000000,,0,9,9,9,,,,,,,,,,,,,,,,,138.15120315600507,None,d,0.7243265639990568,138.25137313200685,None,137.65141271000175,138.06805457700102,139.00152771000285,139.4859579690019,139.00152771000285,None,,,,,,15,001,exponential,ybgr,0.35-0.75,2021_May_20_1303,color_judgement_and_subjective_perception,2020.2.10,59.982802212220875,
2,0.9,training,1000000000000,,0,10,10,10,,,,,,,,,,,,,,,,,140.08574408200366,None,j,1.1738681490023737,140.1858511330065,None,139.58585790900543,140.00244016299985,141.3860108910012,141.88626699100132,141.3860108910012,None,,,,,,15,001,exponential,ybgr,0.35-0.75,2021_May_20_1303,color_judgement_and_subjective_perception,2020.2.10,59.982802212220875,
3,0.9,training,1000000000000,,0,11,11,11,,,,,,,,,,,,,,,,,142.48626800700004,None,k,0.5014372789955814,142.58626885500416,None,141.98625501700008,142.40288993400463,143.11941820200445,143.61972322400106,143.11941820200445,None,,,,,,15,001,exponential,ybgr,0.35-0.75,2021_May_20_1303,color_judgement_and_subjective_perception,2020.2.10,59.982802212220875,
0,0.9,training,1000000000000,,0,12,12,12,,,,,,,,,,,,,,,,,144.22001046400692,None,d,0.39311042500048643,144.31863887800137,None,143.7197369850037,144.13656611400074,144.73733837700274,145.23747354100487,144.73733837700274,None,,,,,,15,001,exponential,ybgr,0.35-0.75,2021_May_20_1303,color_judgement_and_subjective_perception,2020.2.10,59.982802212220875,
2,0.9,training,1000000000000,,0,13,13,13,,,,,,,,,,,,,,,,,145.83752346700203,None,j,1.3101656359940534,145.93753269400622,None,145.3374981800007,145.75430888700066,147.2711399020045,147.77124901700154,147.2711399020045,None,,,,,,15,001,exponential,ybgr,0.35-0.75,2021_May_20_1303,color_judgement_and_subjective_perception,2020.2.10,59.982802212220875,
0,0.9,training,1000000000000,,0,14,14,14,,,,,,,,,,,,,,,,,148.37135711200244,None,d,0.8403894449947984,148.4713626390003,None,147.87120615500316,148.28797472900624,149.3316187770033,149.82244393900328,149.3316187770033,None,,,,,,15,001,exponential,ybgr,0.35-0.75,2021_May_20_1303,color_judgement_and_subjective_perception,2020.2.10,59.982802212220875,
1,0.9,training,1000000000000,,0,15,15,15,,,,,,,,,,,,,,,,,150.42256813300628,None,f,0.869202788999246,150.52247568400344,None,149.92236582400074,150.33906776300137,151.4225703330012,151.9227747860059,151.4225703330012,None,,,,,,15,001,exponential,ybgr,0.35-0.75,2021_May_20_1303,color_judgement_and_subjective_perception,2020.2.10,59.982802212220875,
3,0.9,training,1000000000000,,0,16,16,16,,,,,,,,,,,,,,,,,152.5227968810068,None,k,0.6329916440008674,152.6227417830014,None,152.02282021400606,152.4396280650035,153.2726238430041,153.7728670570068,153.2726238430041,None,,,,,,15,001,exponential,ybgr,0.35-0.75,2021_May_20_1303,color_judgement_and_subjective_perception,2020.2.10,59.982802212220875,
0,0.9,training,1000000000000,,0,17,17,17,,,,,,,,,,,,,,,,,154.3573436880033,None,d,0.7825249570014421,154.457191073001,None,153.87298031200044,154.28977149600541,155.25720163700316,155.7574086540044,155.25720163700316,None,,,,,,15,001,exponential,ybgr,0.35-0.75,2021_May_20_1303,color_judgement_and_subjective_perception,2020.2.10,59.982802212220875,
1,0.9,training,1000000000000,,0,18,18,18,,,,,,,,,,,,,,,,,156.35769922500185,None,f,0.8539800759972422,156.45774273100687,None,155.85729637199984,156.27424950900604,157.3409552000012,157.84105540100427,157.3409552000012,None,,,,,,15,001,exponential,ybgr,0.35-0.75,2021_May_20_1303,color_judgement_and_subjective_perception,2020.2.10,59.982802212220875,
2,0.9,training,1000000000000,,0,19,19,19,,,,,,,,,,,,,,,,,158.44111787800648,None,j,0.746567510002933,158.54114494000532,None,157.94098475600185,158.3578555560016,159.30770105800184,159.79260254600376,159.30770105800184,None,,,,,,15,001,exponential,ybgr,0.35-0.75,2021_May_20_1303,color_judgement_and_subjective_perception,2020.2.10,59.982802212220875,
3,0.9,training,1000000000000,,0,20,20,20,,,,,,,,,,,,,,,,,160.39225078800519,None,k,0.627403429003607,160.49223278499994,None,159.892148318002,160.30892946800304,161.1423681150045,161.64267663500505,161.1423681150045,None,,,,,,15,001,exponential,ybgr,0.35-0.75,2021_May_20_1303,color_judgement_and_subjective_perception,2020.2.10,59.982802212220875,
0,0.9,training,1000000000000,,0,21,21,21,,,,,,,,,,,,,,,,,162.24263848300325,None,d,0.4011012659975677,162.34258562700415,None,161.74257223000313,162.1593412430011,162.77573193500575,163.2761149270009,162.77573193500575,None,,,,,,15,001,exponential,ybgr,0.35-0.75,2021_May_20_1303,color_judgement_and_subjective_perception,2020.2.10,59.982802212220875,
1,0.9,training,1000000000000,,0,22,22,22,,,,,,,,,,,,,,,,,163.87619252900186,None,f,0.45552525200037053,163.97619804900023,None,163.37596511300217,163.7928008480012,164.4603987510054,164.96052088500437,164.4603987510054,None,,,,,,15,001,exponential,ybgr,0.35-0.75,2021_May_20_1303,color_judgement_and_subjective_perception,2020.2.10,59.982802212220875,
2,0.9,training,1000000000000,,0,23,23,23,,,,,,,,,,,,,,,,,165.56049523500405,None,j,0.5551517010026146,165.6605684630049,None,165.06039414000406,165.47721649500454,166.243902936003,166.74420798800566,166.243902936003,None,,,,,,15,001,exponential,ybgr,0.35-0.75,2021_May_20_1303,color_judgement_and_subjective_perception,2020.2.10,59.982802212220875,
3,0.9,training,1000000000000,,0,24,24,24,,,,,,,,,,,,,,,,,167.34420485400187,None,k,0.40355293299944606,167.4441587830006,None,166.84416744600458,167.26091610000003,167.8775424100022,168.3775784870013,167.8775424100022,None,,,,,,15,001,exponential,ybgr,0.35-0.75,2021_May_20_1303,color_judgement_and_subjective_perception,2020.2.10,59.982802212220875,
2,0.9,training,1000000000000,,0,25,25,25,,,,,,,,,,,,,,,,,168.97778879000543,None,j,1.225887344997318,169.07781787200656,None,168.4775855140033,168.89449716200033,170.32874096100568,170.82878908900602,170.32874096100568,None,,,,,,15,001,exponential,ybgr,0.35-0.75,2021_May_20_1303,color_judgement_and_subjective_perception,2020.2.10,59.982802212220875,
3,0.9,training,1000000000000,,0,26,26,26,,,,,,,,,,,,,,,,,171.42902217899973,None,k,0.33459785600280156,171.52910215300653,None,170.92903090900654,171.34565910000674,171.89540223600488,172.39556703900598,171.89540223600488,None,,,,,,15,001,exponential,ybgr,0.35-0.75,2021_May_20_1303,color_judgement_and_subjective_perception,2020.2.10,59.982802212220875,
2,0.9,training,1000000000000,,0,27,27,27,,,,,,,,,,,,,,,,,172.99576756200258,None,j,0.9118102670036023,173.09590193199983,None,172.49561366300622,172.9125402800055,174.02932717700605,174.51378719800414,174.02932717700605,None,,,,,,15,001,exponential,ybgr,0.35-0.75,2021_May_20_1303,color_judgement_and_subjective_perception,2020.2.10,59.982802212220875,
0,0.9,training,1000000000000,,0,28,28,28,,,,,,,,,,,,,,,,,175.11367440900358,None,d,0.6019308219983941,175.21375831000478,None,174.61362331800046,175.03041711100377,175.8469399040041,176.34735208400525,175.8469399040041,None,,,,,,15,001,exponential,ybgr,0.35-0.75,2021_May_20_1303,color_judgement_and_subjective_perception,2020.2.10,59.982802212220875,
1,0.9,training,1000000000000,,0,29,29,29,,,,,,,,,,,,,,,,,176.9474017590037,None,f,0.5603294100001222,177.0474732050061,None,176.44720387500274,176.8640365070023,177.63059250100196,178.13089858400053,177.63059250100196,None,,,,,,15,001,exponential,ybgr,0.35-0.75,2021_May_20_1303,color_judgement_and_subjective_perception,2020.2.10,59.982802212220875,
3,0.9,training,1000000000000,,0,30,30,30,,,,,,,,,,,,,,,,,178.7308872270005,None,k,0.4967147009956534,178.8309978630059,None,178.23078676900332,178.64751014500507,179.34136733100604,179.83192796200456,179.34136733100604,None,,,,,,15,001,exponential,ybgr,0.35-0.75,2021_May_20_1303,color_judgement_and_subjective_perception,2020.2.10,59.982802212220875,
1,0.9,training,1000000000000,,0,31,31,31,,,,,,,,,,,,,,,,,180.43188279400056,None,d,0.9716981800011126,180.5319953290018,None,179.93197565100127,180.3485519740061,181.53207140500308,182.03239073100121,181.53207140500308,None,,,,,,15,001,exponential,ybgr,0.35-0.75,2021_May_20_1303,color_judgement_and_subjective_perception,2020.2.10,59.982802212220875,
0,0.9,training,1000,,,,,,0,0,0,0,,,,,,,,,,,,,187.48389142600354,None,None,-1,187.58397676500317,None,186.98648391800089,187.4006143200022,188.48380853800336,188.98419918000582,188.48380853800336,None,,,,,,15,001,exponential,ybgr,0.35-0.75,2021_May_20_1303,color_judgement_and_subjective_perception,2020.2.10,59.982802212220875,
3,0.9,training,1000,,,,,,0,1,1,1,,,,,,,,,,,,,189.56851635800558,None,k,0.5631997489981586,189.66853326100681,None,189.08398176000628,189.48502063100022,190.25159634800366,190.7518830170011,190.25159634800366,None,,,,,,15,001,exponential,ybgr,0.35-0.75,2021_May_20_1303,color_judgement_and_subjective_perception,2020.2.10,59.982802212220875,
2,0.9,training,1000,,,,,,0,2,2,2,,,,,,,,,,,,,191.35191646600288,None,None,-1,191.4520811120019,None,190.8517412210058,191.2686592540049,192.35190381700522,192.8522390480066,192.35190381700522,None,,,,,,15,001,exponential,ybgr,0.35-0.75,2021_May_20_1303,color_judgement_and_subjective_perception,2020.2.10,59.982802212220875,
0,0.9,training,1000,,,,,,0,3,3,3,,,,,,,,,,,,,193.4522097750014,None,d,0.6794470980021288,193.55227985400415,None,192.95217246900575,193.36894253400533,194.25229418900562,194.7367160460053,194.25229418900562,None,,,,,,15,001,exponential,ybgr,0.35-0.75,2021_May_20_1303,color_judgement_and_subjective_perception,2020.2.10,59.982802212220875,
3,0.9,training,1000,,,,,,0,4,4,4,,,,,,,,,,,,,195.33680087700486,None,k,0.4429735570010962,195.4367314120027,None,194.83667165400402,195.2532240540022,195.90335277000122,196.40368681300606,195.90335277000122,None,,,,,,15,001,exponential,ybgr,0.35-0.75,2021_May_20_1303,color_judgement_and_subjective_perception,2020.2.10,59.982802212220875,
1,0.9,training,1000,,,,,,0,5,5,5,,,,,,,,,,,,,197.00376789200527,None,f,0.743972415002645,197.10372085000563,None,196.50357659900328,196.9204527280017,197.87031794700306,198.37051878400234,197.87031794700306,None,,,,,,15,001,exponential,ybgr,0.35-0.75,2021_May_20_1303,color_judgement_and_subjective_perception,2020.2.10,59.982802212220875,
0,0.9,training,1000,,,,,,0,6,6,6,,,,,,,,,,,,,198.97074891000375,None,d,0.5690332689991919,199.07071884700417,None,198.47052228100074,198.8871958230011,199.6714533320046,200.17162681400077,199.6714533320046,None,,,,,,15,001,exponential,ybgr,0.35-0.75,2021_May_20_1303,color_judgement_and_subjective_perception,2020.2.10,59.982802212220875,
2,0.9,training,1000,,,,,,0,7,7,7,,,,,,,,,,,,,200.77179776600678,None,j,0.8479347259999486,200.87176863300556,None,200.27161876000173,200.68831554600183,201.73861220100662,202.23877260000154,201.73861220100662,None,,,,,,15,001,exponential,ybgr,0.35-0.75,2021_May_20_1303,color_judgement_and_subjective_perception,2020.2.10,59.982802212220875,
1,0.9,training,1000,,,,,,0,8,8,8,,,,,,,,,,,,,202.8387834460009,None,f,0.7491386580004473,202.9385571640014,None,202.33868025400443,202.75536674100294,203.70553055200435,204.20565985200665,203.70553055200435,None,,,,,,15,001,exponential,ybgr,0.35-0.75,2021_May_20_1303,color_judgement_and_subjective_perception,2020.2.10,59.982802212220875,
3,0.9,training,1000,,,,,,0,9,9,9,,,,,,,,,,,,,204.78986913500557,None,k,0.48587741399387596,204.88982337900234,None,204.30561087900423,204.70657764000498,205.406443468004,205.90664986100455,205.406443468004,None,,,,,,15,001,exponential,ybgr,0.35-0.75,2021_May_20_1303,color_judgement_and_subjective_perception,2020.2.10,59.982802212220875,
2,0.9,training,1000,,,,,,0,10,10,10,,,,,,,,,,,,,206.50689146200602,None,d,0.5369869419955648,206.60669251900254,None,206.00658911900246,206.4234958790039,207.17337525800394,207.67355859900272,207.17337525800394,None,,,,,,15,001,exponential,ybgr,0.35-0.75,2021_May_20_1303,color_judgement_and_subjective_perception,2020.2.10,59.982802212220875,
1,0.9,training,1000,,,,,,0,11,11,11,,,,,,,,,,,,,208.27369710000494,None,f,0.6260510479987715,208.37369540300278,None,207.77356328500173,208.19033434300218,209.02363540000079,209.5079936520051,209.02363540000079,None,,,,,,15,001,exponential,ybgr,0.35-0.75,2021_May_20_1303,color_judgement_and_subjective_perception,2020.2.10,59.982802212220875,
2,0.9,training,1000,,,,,,0,12,12,12,,,,,,,,,,,,,210.10806146200048,None,j,0.5118250770028681,210.20788591300516,None,209.60816559100203,210.02470989400172,210.7415275950043,211.19271916400612,210.7415275950043,None,,,,,,15,001,exponential,ybgr,0.35-0.75,2021_May_20_1303,color_judgement_and_subjective_perception,2020.2.10,59.982802212220875,
1,0.9,training,1000,,,,,,0,13,13,13,,,,,,,,,,,,,211.7585611750037,None,None,-1,211.85719866100408,None,211.29157386900624,211.67509425500612,212.648004597002,212.93513909700414,212.648004597002,None,,,,,,15,001,exponential,ybgr,0.35-0.75,2021_May_20_1303,color_judgement_and_subjective_perception,2020.2.10,59.982802212220875,
2,0.9,training,1000,,,,,,0,14,14,14,,,,,,,,,,,,,213.2829995570064,None,None,-1,213.340498029007,None,212.99566516100458,213.23432579400105,213.85339602600288,214.22546563100332,213.85339602600288,None,,,,,,15,001,exponential,ybgr,0.35-0.75,2021_May_20_1303,color_judgement_and_subjective_perception,2020.2.10,59.982802212220875,
1,0.9,training,1000,,,,,,0,15,15,15,,,,,,,,,,,,,214.80978470000264,None,j,0.6660385480063269,214.90964448200248,None,214.32521282900416,214.72623861800093,215.59281848400133,216.09304862600402,215.59281848400133,None,,,,,,15,001,exponential,ybgr,0.35-0.75,2021_May_20_1303,color_judgement_and_subjective_perception,2020.2.10,59.982802212220875,
3,0.9,training,1000,,,,,,0,16,16,16,,,,,,,,,,,,,216.69334712800628,None,k,0.5502897889964515,216.79335858800187,None,216.1930523290066,216.60992993800028,217.37667411900475,217.87679436000326,217.37667411900475,None,,,,,,15,001,exponential,ybgr,0.35-0.75,2021_May_20_1303,color_judgement_and_subjective_perception,2020.2.10,59.982802212220875,
2,0.9,training,1000,,,,,,0,17,17,17,,,,,,,,,,,,,218.47680861200206,None,j,0.7828803829979734,218.5768453940036,None,217.97676831900026,218.39356245500676,219.3777266860052,219.87797920300363,219.3777266860052,None,,,,,,15,001,exponential,ybgr,0.35-0.75,2021_May_20_1303,color_judgement_and_subjective_perception,2020.2.10,59.982802212220875,
0,0.9,training,1000,,,,,,0,18,18,18,,,,,,,,,,,,,220.47794535200228,None,d,0.597592979996989,220.57812721800292,None,219.97796657700383,220.39468595100334,221.19464045500354,221.69500648300163,221.19464045500354,None,,,,,,15,001,exponential,ybgr,0.35-0.75,2021_May_20_1303,color_judgement_and_subjective_perception,2020.2.10,59.982802212220875,
3,0.9,training,1000,,,,,,0,19,19,19,,,,,,,,,,,,,222.29517497500638,None,k,0.5086652059981134,222.39504819000285,None,221.79488581500482,222.2117928870066,222.92834882700117,223.42842235100397,222.92834882700117,None,,,,,,15,001,exponential,ybgr,0.35-0.75,2021_May_20_1303,color_judgement_and_subjective_perception,2020.2.10,59.982802212220875,
0,0.9,training,1000,,,,,,0,20,20,20,,,,,,,,,,,,,224.02856720200361,None,d,0.6311767500010319,224.12856672600174,None,223.52835153600608,223.94520608099992,224.77962397500232,225.2794605040035,224.77962397500232,None,,,,,,15,001,exponential,ybgr,0.35-0.75,2021_May_20_1303,color_judgement_and_subjective_perception,2020.2.10,59.982802212220875,
3,0.9,training,1000,,,,,,0,21,21,21,,,,,,,,,,,,,225.87953070600634,None,k,0.5481054649935686,225.97960304500157,None,225.37930583400157,225.7962134000045,226.54638674200396,227.0465266320025,226.54638674200396,None,,,,,,15,001,exponential,ybgr,0.35-0.75,2021_May_20_1303,color_judgement_and_subjective_perception,2020.2.10,59.982802212220875,
1,0.9,training,1000,,,,,,0,22,22,22,,,,,,,,,,,,,227.64653227600502,None,f,0.4531348629971035,227.74661429800472,None,227.14630666900484,227.56330518800678,228.22985791700194,228.73004881500674,228.22985791700194,None,,,,,,15,001,exponential,ybgr,0.35-0.75,2021_May_20_1303,color_judgement_and_subjective_perception,2020.2.10,59.982802212220875,
3,0.9,training,1000,,,,,,0,23,23,23,,,,,,,,,,,,,229.33019279800646,None,k,0.8012239730014699,229.414467513001,None,228.82992787100375,229.2468153230002,230.24769672500406,230.74789460200554,230.24769672500406,None,,,,,,15,001,exponential,ybgr,0.35-0.75,2021_May_20_1303,color_judgement_and_subjective_perception,2020.2.10,59.982802212220875,
0,0.9,training,1000,,,,,,0,24,24,24,,,,,,,,,,,,,231.3479366410029,None,d,0.39165427300031297,231.44805292800447,None,230.84773995900468,231.26461607600504,231.8647632850043,232.36455358200328,231.8647632850043,None,,,,,,15,001,exponential,ybgr,0.35-0.75,2021_May_20_1303,color_judgement_and_subjective_perception,2020.2.10,59.982802212220875,
1,0.9,training,1000,,,,,,0,25,25,25,,,,,,,,,,,,,232.96488377700007,None,None,-1,233.06475792400306,None,232.4648024900016,232.8813946260052,233.96485266100353,234.44940222700097,233.96485266100353,None,,,,,,15,001,exponential,ybgr,0.35-0.75,2021_May_20_1303,color_judgement_and_subjective_perception,2020.2.10,59.982802212220875,
0,0.9,training,1000,,,,,,0,26,26,26,,,,,,,,,,,,,235.04937045300176,None,None,-1,235.1493689350027,None,234.5494145640041,234.96595564000017,236.04950348400598,236.54965516100492,236.04950348400598,None,,,,,,15,001,exponential,ybgr,0.35-0.75,2021_May_20_1303,color_judgement_and_subjective_perception,2020.2.10,59.982802212220875,
2,0.9,training,1000,,,,,,0,27,27,27,,,,,,,,,,,,,237.14983412200672,None,j,0.6298852599938982,237.24983432500449,None,236.6495648870041,237.06637773300463,237.89963305800484,238.39976871100225,237.89963305800484,None,,,,,,15,001,exponential,ybgr,0.35-0.75,2021_May_20_1303,color_judgement_and_subjective_perception,2020.2.10,59.982802212220875,
0,0.9,training,1000,,,,,,0,28,28,28,,,,,,,,,,,,,238.99993385900598,None,None,-1,239.10002443700068,None,238.49986099100352,238.91673547900427,239.98422790699988,240.48418410100567,239.98422790699988,None,,,,,,15,001,exponential,ybgr,0.35-0.75,2021_May_20_1303,color_judgement_and_subjective_perception,2020.2.10,59.982802212220875,
1,0.9,training,1000,,,,,,0,29,29,29,,,,,,,,,,,,,241.0844852740047,None,f,0.5512832480017096,241.18443312400632,None,240.58423571900494,241.00099568100268,241.76772199300467,242.26812696300476,241.76772199300467,None,,,,,,15,001,exponential,ybgr,0.35-0.75,2021_May_20_1303,color_judgement_and_subjective_perception,2020.2.10,59.982802212220875,
3,0.9,training,1000,,,,,,0,30,30,30,,,,,,,,,,,,,242.86795699500362,None,k,0.6556071309969411,242.96814330900088,None,242.36793375700654,242.78463878100592,243.65138160500646,244.15141248300642,243.65138160500646,None,,,,,,15,001,exponential,ybgr,0.35-0.75,2021_May_20_1303,color_judgement_and_subjective_perception,2020.2.10,59.982802212220875,
1,0.9,training,1000,,,,,,0,31,31,31,,,,,,,,,,,,,244.7358952470022,None,f,0.40386626600229647,244.8358666780041,None,244.25152376900223,244.65257645000383,245.26895613899978,245.76926135300164,245.26895613899978,None,,,,,,15,001,exponential,ybgr,0.35-0.75,2021_May_20_1303,color_judgement_and_subjective_perception,2020.2.10,59.982802212220875,
2,0.9,training,1000,,,,,,0,32,32,32,,,,,,,,,,,,,246.3694638779998,None,j,0.33029207099752966,246.46943627600558,None,245.8692812340014,246.28621080200537,246.81947764500364,247.31948101400485,246.81947764500364,None,,,,,,15,001,exponential,ybgr,0.35-0.75,2021_May_20_1303,color_judgement_and_subjective_perception,2020.2.10,59.982802212220875,
0,0.9,training,1000,,,,,,0,33,33,33,,,,,,,,,,,,,247.9195637820012,None,d,0.20407301699742675,248.01963444000285,None,247.41957813300542,247.83625175100315,248.2528810990043,248.75318175000575,248.2528810990043,None,,,,,,15,001,exponential,ybgr,0.35-0.75,2021_May_20_1303,color_judgement_and_subjective_perception,2020.2.10,59.982802212220875,
3,0.9,training,1000,,,,,,0,34,34,34,,,,,,,,,,,,,249.35178326500318,None,k,0.36215797499608016,249.43743583700416,None,248.85307587200077,249.2696423380039,249.82065197200427,250.3207868170066,249.82065197200427,None,,,,,,15,001,exponential,ybgr,0.35-0.75,2021_May_20_1303,color_judgement_and_subjective_perception,2020.2.10,59.982802212220875,
2,0.9,training,1000,,,,,,0,35,35,35,,,,,,,,,,,,,250.92080062000605,None,f,0.5068359310025699,251.0208611650014,None,250.42081014900032,250.8376406680036,251.55422429600003,252.05445345000044,251.55422429600003,None,,,,,,15,001,exponential,ybgr,0.35-0.75,2021_May_20_1303,color_judgement_and_subjective_perception,2020.2.10,59.982802212220875,
3,0.9,training,1000,,,,,,0,36,36,36,,,,,,,,,,,,,252.65447134800343,None,k,0.5011163329982082,252.75460627100256,None,252.15447052400123,252.5712179520051,253.28763200600224,253.78795671000262,253.28763200600224,None,,,,,,15,001,exponential,ybgr,0.35-0.75,2021_May_20_1303,color_judgement_and_subjective_perception,2020.2.10,59.982802212220875,
1,0.9,training,1000,,,,,,0,37,37,37,,,,,,,,,,,,,254.37284137800452,None,f,0.5912916560046142,254.47240655400674,None,253.8880872410009,254.30481596800382,255.08887785300612,255.58897087200603,255.08887785300612,None,,,,,,15,001,exponential,ybgr,0.35-0.75,2021_May_20_1303,color_judgement_and_subjective_perception,2020.2.10,59.982802212220875,
3,0.9,training,1000,,,,,,0,38,38,38,,,,,,,,,,,,,256.1892312800046,None,k,0.4305207090001204,256.2891787700064,None,255.68903456600674,256.1058155980063,256.73931372100196,257.23944479000056,256.73931372100196,None,,,,,,15,001,exponential,ybgr,0.35-0.75,2021_May_20_1303,color_judgement_and_subjective_perception,2020.2.10,59.982802212220875,
0,0.9,training,1000,,,,,,0,39,39,39,,,,,,,,,,,,,257.8393733470002,None,d,0.6283648690005066,257.93936394200136,None,257.33939523800655,257.75613350700587,258.58955158699973,259.0898123700026,258.58955158699973,None,,,,,,15,001,exponential,ybgr,0.35-0.75,2021_May_20_1303,color_judgement_and_subjective_perception,2020.2.10,59.982802212220875,
2,0.9,training,1000,,,,,,0,40,40,40,,,,,,,,,,,,,259.6739748560067,None,f,0.553667805994337,259.7740406150042,None,259.189704289005,259.5906740190039,260.35701207600505,260.84084203100065,260.35701207600505,None,,,,,,15,001,exponential,ybgr,0.35-0.75,2021_May_20_1303,color_judgement_and_subjective_perception,2020.2.10,59.982802212220875,
1,0.9,training,1000,,,,,,0,41,41,41,,,,,,,,,,,,,261.40622026799974,None,j,0.5801376370000071,261.5075822610015,None,260.9407165750017,261.32426657500037,262.1076431420006,262.59090656000626,262.1076431420006,None,,,,,,15,001,exponential,ybgr,0.35-0.75,2021_May_20_1303,color_judgement_and_subjective_perception,2020.2.10,59.982802212220875,
0,0.9,training,1000,,,,,,0,42,42,42,,,,,,,,,,,,,263.1910295050038,None,d,0.5806011189997662,263.2911157960043,None,262.6910532430047,263.10782276900136,263.8911330710034,264.37606723800127,263.8911330710034,None,,,,,,15,001,exponential,ybgr,0.35-0.75,2021_May_20_1303,color_judgement_and_subjective_perception,2020.2.10,59.982802212220875,
1,0.9,training,1000,,,,,,0,43,43,43,,,,,,,,,,,,,264.97541711899976,None,f,0.29997251400345704,265.07566456200584,None,264.4754779930008,264.89213775600365,265.4088522900056,265.9090108119999,265.4088522900056,None,,,,,,15,001,exponential,ybgr,0.35-0.75,2021_May_20_1303,color_judgement_and_subjective_perception,2020.2.10,59.982802212220875,
3,0.9,training,1000,,,,,,0,44,44,44,,,,,,,,,,,,,266.5091437910014,None,k,0.4063272709972807,266.6093623600027,None,266.0088226700027,266.42582882400166,267.04246451400104,267.54245212300157,267.04246451400104,None,,,,,,15,001,exponential,ybgr,0.35-0.75,2021_May_20_1303,color_judgement_and_subjective_perception,2020.2.10,59.982802212220875,
2,0.9,training,1000,,,,,,0,45,45,45,,,,,,,,,,,,,268.14269599600084,None,j,0.29319512900110567,268.2425228860011,None,267.642565345006,268.0594363160053,268.55920976900234,269.0594888330015,268.55920976900234,None,,,,,,15,001,exponential,ybgr,0.35-0.75,2021_May_20_1303,color_judgement_and_subjective_perception,2020.2.10,59.982802212220875,
0,0.9,training,1000,,,,,,0,46,46,46,,,,,,,,,,,,,269.64355943500414,None,d,0.37589837700215867,269.74381515600544,None,269.1594504760069,269.5605065350028,270.14373288500065,270.6438989810049,270.14373288500065,None,,,,,,15,001,exponential,ybgr,0.35-0.75,2021_May_20_1303,color_judgement_and_subjective_perception,2020.2.10,59.982802212220875,
2,0.9,training,1000,,,,,,0,47,47,47,,,,,,,,,,,,,271.243992102005,None,d,0.2957088369948906,271.3439080820026,None,270.74372669400327,271.160676092004,271.66063899700384,272.1608353670017,271.66063899700384,None,,,,,,15,001,exponential,ybgr,0.35-0.75,2021_May_20_1303,color_judgement_and_subjective_perception,2020.2.10,59.982802212220875,
3,0.9,training,1000,,,,,,0,48,48,48,,,,,,,,,,,,,272.7608113380047,None,k,0.7547489119970123,272.86094676300127,None,272.2608734720052,272.67762067300646,273.6441359550008,274.14450908599974,273.6441359550008,None,,,,,,15,001,exponential,ybgr,0.35-0.75,2021_May_20_1303,color_judgement_and_subjective_perception,2020.2.10,59.982802212220875,
1,0.9,training,1000,,,,,,0,49,49,49,,,,,,,,,,,,,274.72883659500076,None,f,0.666848023996863,274.8287867580002,None,274.2444045709999,274.6454965200028,275.5286707270061,276.02890191400365,275.5286707270061,None,,,,,,15,001,exponential,ybgr,0.35-0.75,2021_May_20_1303,color_judgement_and_subjective_perception,2020.2.10,59.982802212220875,
0,0.9,training,1000,,,,,,0,50,50,50,,,,,,,,,,,,,276.62899723600276,None,d,0.4867429079968133,276.7289669940001,None,276.1287856210038,276.545622550002,277.2457568680038,277.7458141810057,277.2457568680038,None,,,,,,15,001,exponential,ybgr,0.35-0.75,2021_May_20_1303,color_judgement_and_subjective_perception,2020.2.10,59.982802212220875,
0,0.9,training,1000,,,,,,0,51,51,51,,,,,,,,,,,,,278.34584516300674,None,d,0.3538937170014833,278.4458118870025,None,277.8457916500047,278.26233618900005,278.82930117500655,279.32939717600675,278.82930117500655,None,,,,,,15,001,exponential,ybgr,0.35-0.75,2021_May_20_1303,color_judgement_and_subjective_perception,2020.2.10,59.982802212220875,
0,0.9,training,1000,,,,,,0,52,52,52,,,,,,,,,,,,,279.91351228100393,None,d,0.44223388599493774,280.0135149800044,None,279.4134917400006,279.83032483500574,280.48018087200035,280.98037330800435,280.48018087200035,None,,,,,,15,001,exponential,ybgr,0.35-0.75,2021_May_20_1303,color_judgement_and_subjective_perception,2020.2.10,59.982802212220875,
2,0.9,training,1000,,,,,,0,53,53,53,,,,,,,,,,,,,281.5806123220027,None,k,0.5670438090019161,281.6805882059998,None,281.08049991100415,281.497267028004,282.28062444600073,282.7806964200063,282.28062444600073,None,,,,,,15,001,exponential,ybgr,0.35-0.75,2021_May_20_1303,color_judgement_and_subjective_perception,2020.2.10,59.982802212220875,
0,0.9,training,1000,,,,,,0,54,54,54,,,,,,,,,,,,,283.38073350200284,None,f,0.8548579769994831,283.4807984280051,None,282.8807644180051,283.2974122240048,284.362796100002,284.8486271970032,284.362796100002,None,,,,,,15,001,exponential,ybgr,0.35-0.75,2021_May_20_1303,color_judgement_and_subjective_perception,2020.2.10,59.982802212220875,
2,0.9,training,1000,,,,,,0,55,55,55,,,,,,,,,,,,,285.44869279300474,None,j,0.6750394189948565,285.5486520880004,None,284.94853771000635,285.36531050300255,286.2486346980004,286.7489071970049,286.2486346980004,None,,,,,,15,001,exponential,ybgr,0.35-0.75,2021_May_20_1303,color_judgement_and_subjective_perception,2020.2.10,59.982802212220875,
0,0.9,training,1000,,,,,,0,56,56,56,,,,,,,,,,,,,287.3490803100067,None,d,0.6788257849984802,287.44889011200576,None,286.8488963320051,287.2655549730043,288.1489634210011,288.6490964980039,288.1489634210011,None,,,,,,15,001,exponential,ybgr,0.35-0.75,2021_May_20_1303,color_judgement_and_subjective_perception,2020.2.10,59.982802212220875,
1,0.9,training,1000,,,,,,0,57,57,57,,,,,,,,,,,,,289.24922711100226,None,f,0.746534370999143,289.349062926005,None,288.74898873400525,289.1657647650063,290.1166417450004,290.61680111600435,290.1166417450004,None,,,,,,15,001,exponential,ybgr,0.35-0.75,2021_May_20_1303,color_judgement_and_subjective_perception,2020.2.10,59.982802212220875,
2,0.9,training,1000,,,,,,0,58,58,58,,,,,,,,,,,,,291.2169653750025,None,j,0.6105839640003978,291.3170665860016,None,290.71669019600085,291.13361565400555,291.95040895600687,292.45053299100255,291.95040895600687,None,,,,,,15,001,exponential,ybgr,0.35-0.75,2021_May_20_1303,color_judgement_and_subjective_perception,2020.2.10,59.982802212220875,
0,0.9,training,1000,,,,,,0,59,59,59,,,,,,,,,,,,,293.05061257500347,None,d,0.6089908580033807,293.1507150899997,None,292.55051919400285,292.9670438250032,293.78388938400167,294.28383682700223,293.78388938400167,None,,,,,,15,001,exponential,ybgr,0.35-0.75,2021_May_20_1303,color_judgement_and_subjective_perception,2020.2.10,59.982802212220875,
3,0.9,training,1000,,,,,,0,60,60,60,,,,,,,,,,,,,294.86847439900157,None,d,0.6473231069976464,294.9684208010003,None,294.3765670770008,294.7850065380044,295.63491085100395,296.13528160200076,295.63491085100395,None,,,,,,15,001,exponential,ybgr,0.35-0.75,2021_May_20_1303,color_judgement_and_subjective_perception,2020.2.10,59.982802212220875,
3,0.9,training,1000,,,,,,0,61,61,61,,,,,,,,,,,,,296.7355311030042,None,k,0.6442622140020831,296.83537666600023,None,296.2351871200008,296.6520603110039,297.5018413570069,298.0021872830039,297.5018413570069,None,,,,,,15,001,exponential,ybgr,0.35-0.75,2021_May_20_1303,color_judgement_and_subjective_perception,2020.2.10,59.982802212220875,
1,0.9,training,1000,,,,,,0,62,62,62,,,,,,,,,,,,,298.6022158350024,None,d,0.8337425399950007,298.7020268970009,None,298.1020823880026,298.51888703900477,299.55312604800565,300.05329498000356,299.55312604800565,None,,,,,,15,001,exponential,ybgr,0.35-0.75,2021_May_20_1303,color_judgement_and_subjective_perception,2020.2.10,59.982802212220875,
1,0.9,training,1000,,,,,,0,63,63,63,,,,,,,,,,,,,300.6533599740069,None,f,0.6622129530005623,300.75342374800675,None,300.1532290390023,300.57015359600337,301.436733003,301.9369457690045,301.436733003,None,,,,,,15,001,exponential,ybgr,0.35-0.75,2021_May_20_1303,color_judgement_and_subjective_perception,2020.2.10,59.982802212220875,
3,0.9,training,1000,,,,,,0,64,64,64,,,,,,,,,,,,,302.5369991050029,None,None,-1,302.63710579400504,None,302.03696118000516,302.4538206280049,303.5370731200019,304.0372126470029,303.5370731200019,None,,,,,,15,001,exponential,ybgr,0.35-0.75,2021_May_20_1303,color_judgement_and_subjective_perception,2020.2.10,59.982802212220875,
3,0.9,training,1000,,,,,,0,65,65,65,,,,,,,,,,,,,304.6215038460068,None,k,0.3821336219989462,304.7215580980046,None,304.1371469020014,304.53832805200364,305.12132563900377,305.6216538860026,305.12132563900377,None,,,,,,15,001,exponential,ybgr,0.35-0.75,2021_May_20_1303,color_judgement_and_subjective_perception,2020.2.10,59.982802212220875,
2,0.9,training,1000,,,,,,0,66,66,66,,,,,,,,,,,,,306.2218518870068,None,j,0.6939591850023135,306.32176282700675,None,305.7215192030053,306.1383912700039,307.03849796800205,307.5384989100057,307.03849796800205,None,,,,,,15,001,exponential,ybgr,0.35-0.75,2021_May_20_1303,color_judgement_and_subjective_perception,2020.2.10,59.982802212220875,
1,0.9,training,1000,,,,,,0,67,67,67,,,,,,,,,,,,,308.1386680890064,None,f,0.8410181409999495,308.2387086420058,None,307.6384999530055,308.05542733100447,309.1054791650022,309.58979403500416,309.1054791650022,None,,,,,,15,001,exponential,ybgr,0.35-0.75,2021_May_20_1303,color_judgement_and_subjective_perception,2020.2.10,59.982802212220875,
2,0.9,training,1000,,,,,,0,68,68,68,,,,,,,,,,,,,310.1898380670027,None,j,0.5659291869960725,310.28976382800465,None,309.6897280830017,310.1064789420052,310.87308389900136,311.3734960319998,310.87308389900136,None,,,,,,15,001,exponential,ybgr,0.35-0.75,2021_May_20_1303,color_judgement_and_subjective_perception,2020.2.10,59.982802212220875,
2,0.9,training,1000,,,,,,0,69,69,69,,,,,,,,,,,,,311.9735321600019,None,j,0.43021185399993556,312.0735128100059,None,311.4732932350016,311.89040599000145,312.5236218930004,313.0234742880057,312.5236218930004,None,,,,,,15,001,exponential,ybgr,0.35-0.75,2021_May_20_1303,color_judgement_and_subjective_perception,2020.2.10,59.982802212220875,
1,0.9,training,1000,,,,,,0,70,70,70,,,,,,,,,,,,,313.62338603300304,None,f,0.5400245790006011,313.7237257020024,None,313.12356457400165,313.54034210900136,314.2904230780041,314.77480547200685,314.2904230780041,None,,,,,,15,001,exponential,ybgr,0.35-0.75,2021_May_20_1303,color_judgement_and_subjective_perception,2020.2.10,59.982802212220875,
1,0.9,training,1000,,,,,,0,71,71,71,,,,,,,,,,,,,315.3747582290016,None,f,0.41287384900351753,315.47481931600487,None,314.8746264510046,315.2914270800029,315.9081639930009,316.4083791840021,315.9081639930009,None,,,,,,15,001,exponential,ybgr,0.35-0.75,2021_May_20_1303,color_judgement_and_subjective_perception,2020.2.10,59.982802212220875,
3,0.9,training,1000,,,,,,0,72,72,72,,,,,,,,,,,,,317.0085383840051,None,k,0.763326619999134,317.1084048670018,None,316.5083975380039,316.92514910400496,317.8916355890033,318.3919177700009,317.8916355890033,None,,,,,,15,001,exponential,ybgr,0.35-0.75,2021_May_20_1303,color_judgement_and_subjective_perception,2020.2.10,59.982802212220875,
2,0.9,training,1000,,,,,,0,73,73,73,,,,,,,,,,,,,318.99209265000536,None,f,0.5796570999955293,319.09209475100215,None,318.4918385820056,318.9087508990051,319.6927887930069,320.19290719900164,319.6927887930069,None,,,,,,15,001,exponential,ybgr,0.35-0.75,2021_May_20_1303,color_judgement_and_subjective_perception,2020.2.10,59.982802212220875,
3,0.9,training,1000,,,,,,0,74,74,74,,,,,,,,,,,,,320.7930774080014,None,k,0.44266934400366154,320.89307724800165,None,320.292830477003,320.70966033600416,321.3597416690027,321.86005273300543,321.3597416690027,None,,,,,,15,001,exponential,ybgr,0.35-0.75,2021_May_20_1303,color_judgement_and_subjective_perception,2020.2.10,59.982802212220875,
0,0.9,training,1000,,,,,,0,75,75,75,,,,,,,,,,,,,322.4600597420067,None,d,0.5355520869998145,322.56012533700414,None,321.9598342780009,322.37673844900564,323.1265812220008,323.6268709750002,323.1265812220008,None,,,,,,15,001,exponential,ybgr,0.35-0.75,2021_May_20_1303,color_judgement_and_subjective_perception,2020.2.10,59.982802212220875,
0,0.9,training,1000,,,,,,0,76,76,76,,,,,,,,,,,,,324.2270829090048,None,d,0.32087166199926287,324.32684917100414,None,323.7268819730016,324.14361990800535,324.6777890730009,325.1778848820031,324.6777890730009,None,,,,,,15,001,exponential,ybgr,0.35-0.75,2021_May_20_1303,color_judgement_and_subjective_perception,2020.2.10,59.982802212220875,
1,0.9,training,1000,,,,,,0,77,77,77,,,,,,,,,,,,,325.77809200699994,None,f,0.35359773900563596,325.87810177600477,None,325.277805319005,325.69454449300247,326.2612788700062,326.7616263529999,326.2612788700062,None,,,,,,15,001,exponential,ybgr,0.35-0.75,2021_May_20_1303,color_judgement_and_subjective_perception,2020.2.10,59.982802212220875,
3,0.9,training,1000,,,,,,0,78,78,78,,,,,,,,,,,,,327.3615437510016,None,j,0.47401421800168464,327.4616915000006,None,326.8616005270014,327.2783837990064,327.9614131190028,328.46174361700105,327.9614131190028,None,,,,,,15,001,exponential,ybgr,0.35-0.75,2021_May_20_1303,color_judgement_and_subjective_perception,2020.2.10,59.982802212220875,
1,0.9,training,1000,,,,,,0,79,79,79,,,,,,,,,,,,,329.0618746270047,None,d,0.565809273000923,329.16190052599995,None,328.5618013580024,328.97852080099983,329.7459896460059,330.2460957830044,329.7459896460059,None,,,,,,15,001,exponential,ybgr,0.35-0.75,2021_May_20_1303,color_judgement_and_subjective_perception,2020.2.10,59.982802212220875,
0,0.9,training,1000,,,,,,0,80,80,80,,,,,,,,,,,,,330.84635803400306,None,d,0.6693660590026411,330.94630951600266,None,330.34607322000375,330.76286972300295,331.64628646200435,332.14652676100377,331.64628646200435,None,,,,,,15,001,exponential,ybgr,0.35-0.75,2021_May_20_1303,color_judgement_and_subjective_perception,2020.2.10,59.982802212220875,
3,0.9,training,1000,,,,,,0,81,81,81,,,,,,,,,,,,,332.7466094650008,None,k,0.4732293670022045,332.8465006680053,None,332.2464790800004,332.663263278002,333.3463904620003,333.8466418750031,333.3463904620003,None,,,,,,15,001,exponential,ybgr,0.35-0.75,2021_May_20_1303,color_judgement_and_subjective_perception,2020.2.10,59.982802212220875,
2,0.9,training,1000,,,,,,0,82,82,82,,,,,,,,,,,,,334.43107419100124,None,j,0.6367995900000096,334.53093322200584,None,333.94654876500135,334.3635503120022,335.1977659100012,335.6978124180023,335.1977659100012,None,,,,,,15,001,exponential,ybgr,0.35-0.75,2021_May_20_1303,color_judgement_and_subjective_perception,2020.2.10,59.982802212220875,
1,0.9,training,1000,,,,,,0,83,83,83,,,,,,,,,,,,,336.29794113400567,None,f,0.6818722569951206,336.39784395600145,None,335.79778684500343,336.21455165299994,337.09810647800623,337.59812140300346,337.09810647800623,None,,,,,,15,001,exponential,ybgr,0.35-0.75,2021_May_20_1303,color_judgement_and_subjective_perception,2020.2.10,59.982802212220875,
2,0.9,training,1000,,,,,,0,84,84,84,,,,,,,,,,,,,338.19811093700264,None,k,0.8615408920013579,338.29818408400024,None,337.6980413220008,338.11489209300635,339.18158743000095,339.6660418620013,339.18158743000095,None,,,,,,15,001,exponential,ybgr,0.35-0.75,2021_May_20_1303,color_judgement_and_subjective_perception,2020.2.10,59.982802212220875,
0,0.9,training,1000,,,,,,0,85,85,85,,,,,,,,,,,,,340.26599672300654,None,d,0.41774615900067147,340.36596925500635,None,339.76597165700514,340.18252223900345,340.815888379002,341.3161982320016,340.815888379002,None,,,,,,15,001,exponential,ybgr,0.35-0.75,2021_May_20_1303,color_judgement_and_subjective_perception,2020.2.10,59.982802212220875,
3,0.9,training,1000,,,,,,0,86,86,86,,,,,,,,,,,,,341.9163279570057,None,k,0.6873484870011453,342.0163741570068,None,341.416178477004,341.8330091670068,342.73301914900367,343.23312198400527,342.73301914900367,None,,,,,,15,001,exponential,ybgr,0.35-0.75,2021_May_20_1303,color_judgement_and_subjective_perception,2020.2.10,59.982802212220875,
0,0.9,training,1000,,,,,,0,87,87,87,,,,,,,,,,,,,343.83315295600187,None,d,0.3704267319990322,343.93329307000386,None,343.33297171200684,343.7500431620065,344.333174463005,344.81741769200016,344.333174463005,None,,,,,,15,001,exponential,ybgr,0.35-0.75,2021_May_20_1303,color_judgement_and_subjective_perception,2020.2.10,59.982802212220875,
2,0.9,training,1000,,,,,,0,88,88,88,,,,,,,,,,,,,345.4174952790054,None,j,0.45014784499653615,345.51759762700385,None,344.9175366280033,345.3342561810059,345.9840800920065,346.4843749940046,345.9840800920065,None,,,,,,15,001,exponential,ybgr,0.35-0.75,2021_May_20_1303,color_judgement_and_subjective_perception,2020.2.10,59.982802212220875,
3,0.9,training,1000,,,,,,0,89,89,89,,,,,,,,,,,,,347.08451604000584,None,d,0.47908851099782623,347.1846221260057,None,346.58447017800063,347.0013851420008,347.6845400680031,348.18472726500477,347.6845400680031,None,,,,,,15,001,exponential,ybgr,0.35-0.75,2021_May_20_1303,color_judgement_and_subjective_perception,2020.2.10,59.982802212220875,
1,0.9,training,1000,,,,,,0,90,90,90,,,,,,,,,,,,,348.784768551006,None,d,0.49878314500529086,348.8848270620001,None,348.28468394000083,348.7015150140069,349.4053947930006,349.90261756400287,349.4053947930006,None,,,,,,15,001,exponential,ybgr,0.35-0.75,2021_May_20_1303,color_judgement_and_subjective_perception,2020.2.10,59.982802212220875,
0,0.9,training,1000,,,,,,0,91,91,91,,,,,,,,,,,,,350.5024161170004,None,d,0.5411930959962774,350.60254536499997,None,350.00224120799976,350.4191736040011,351.1691294040065,351.6695238770044,351.1691294040065,None,,,,,,15,001,exponential,ybgr,0.35-0.75,2021_May_20_1303,color_judgement_and_subjective_perception,2020.2.10,59.982802212220875,
1,0.9,training,1000,,,,,,0,92,92,92,,,,,,,,,,,,,352.2696883250028,None,f,0.3422600080011762,352.3695425370024,None,351.7694142890032,352.18622188000154,352.7358599730069,353.23640780999995,352.7358599730069,None,,,,,,15,001,exponential,ybgr,0.35-0.75,2021_May_20_1303,color_judgement_and_subjective_perception,2020.2.10,59.982802212220875,
2,0.9,training,1000,,,,,,0,93,93,93,,,,,,,,,,,,,353.8364180250064,None,k,0.6633500450043357,353.93635024100513,None,353.3363017830052,353.7530060260033,354.6202998580047,355.1207343070055,354.6202998580047,None,,,,,,15,001,exponential,ybgr,0.35-0.75,2021_May_20_1303,color_judgement_and_subjective_perception,2020.2.10,59.982802212220875,
3,0.9,training,1000,,,,,,0,94,94,94,,,,,,,,,,,,,355.7209012120002,None,k,0.458888774002844,355.82084961700457,None,355.22050930000114,355.63740253400465,356.3040890750053,356.8045513160032,356.3040890750053,None,,,,,,15,001,exponential,ybgr,0.35-0.75,2021_May_20_1303,color_judgement_and_subjective_perception,2020.2.10,59.982802212220875,
2,0.9,training,1000,,,,,,0,95,95,95,,,,,,,,,,,,,357.40427904600074,None,j,0.41529076999722747,357.5043625150065,None,356.9044982760024,357.3211042040057,357.9377234870044,358.4378398950066,357.9377234870044,None,,,,,,15,001,exponential,ybgr,0.35-0.75,2021_May_20_1303,color_judgement_and_subjective_perception,2020.2.10,59.982802212220875,
3,0.35,testing,1000,1,,,,,,,,,0,0,0,0,0,0,0,3,,,,,365.44049601200095,None,None,-1,365.54055108300236,None,364.94264595600544,365.35718683000596,366.44066966500395,366.94100851400435,366.44066966500395,None,37,12,0,,,15,001,exponential,ybgr,0.35-0.75,2021_May_20_1303,color_judgement_and_subjective_perception,2020.2.10,59.982802212220875,
1,0.35,testing,1000,1,,,,,,,,,0,0,0,0,0,1,1,1,,,,,367.5409194800013,None,None,-1,367.64091680300044,None,367.0409297090009,367.4576390000002,368.5410164750065,369.0413622640044,368.5410164750065,None,0,0,24,,,15,001,exponential,ybgr,0.35-0.75,2021_May_20_1303,color_judgement_and_subjective_perception,2020.2.10,59.982802212220875,
2,0.35,testing,1000,1,,,,,,,,,0,0,0,0,0,2,2,2,,,,,369.6254236760069,None,None,-1,369.7255231320014,None,369.14114065500326,369.5422173820043,370.6255081440031,371.1256546670047,370.6255081440031,None,0,23,0,,,15,001,exponential,ybgr,0.35-0.75,2021_May_20_1303,color_judgement_and_subjective_perception,2020.2.10,59.982802212220875,
0,0.35,testing,1000,1,,,,,,,,,0,0,0,0,0,3,3,0,,,,,371.725907111002,None,k,0.8777763439939008,371.82583179799985,None,371.22561572700215,371.6424971810047,372.72586691900506,373.22604794100334,372.72586691900506,None,30,30,0,,,15,001,exponential,ybgr,0.35-0.75,2021_May_20_1303,color_judgement_and_subjective_perception,2020.2.10,59.982802212220875,
1,0.35,testing,1000,1,,,,,,,,,0,0,0,0,1,0,4,1,,,,,373.8260078920066,None,j,0.12176078299671644,373.9259709140024,None,373.3257990810016,373.74274257300567,374.0759108370039,374.560330059001,374.0759108370039,None,0,0,28,,,15,001,exponential,ybgr,0.35-0.75,2021_May_20_1303,color_judgement_and_subjective_perception,2020.2.10,59.982802212220875,
2,0.35,testing,1000,1,,,,,,,,,0,0,0,0,1,1,5,2,,,,,375.16043591500056,None,None,-1,375.2604123180063,None,374.66038431400375,375.077125696007,376.16049992700573,376.6607370920028,376.16049992700573,None,0,27,0,,,15,001,exponential,ybgr,0.35-0.75,2021_May_20_1303,color_judgement_and_subjective_perception,2020.2.10,59.982802212220875,
3,0.35,testing,1000,1,,,,,,,,,0,0,0,0,1,2,6,3,,,,,377.26084850500047,None,None,-1,377.3608579310021,None,376.7606313130018,377.17736278800294,378.26073383699986,378.76099925600283,378.26073383699986,None,44,15,0,,,15,001,exponential,ybgr,0.35-0.75,2021_May_20_1303,color_judgement_and_subjective_perception,2020.2.10,59.982802212220875,
0,0.35,testing,1000,1,,,,,,,,,0,0,0,0,1,3,7,0,,,,,379.36105898200185,None,None,-1,379.4453467580024,None,378.86091896600556,379.27784429200256,380.34514718800347,380.84536676300195,380.34514718800347,None,35,35,0,,,15,001,exponential,ybgr,0.35-0.75,2021_May_20_1303,color_judgement_and_subjective_perception,2020.2.10,59.982802212220875,
3,0.35,testing,1000,1,,,,,,,,,0,0,0,0,2,0,8,3,,,,,381.4455833710017,None,None,-1,381.5456029890047,None,380.94526556700293,381.36218932600605,382.44567030700273,382.94576371500443,382.44567030700273,None,47,16,0,,,15,001,exponential,ybgr,0.35-0.75,2021_May_20_1303,color_judgement_and_subjective_perception,2020.2.10,59.982802212220875,
2,0.35,testing,1000,1,,,,,,,,,0,0,0,0,2,1,9,2,,,,,383.5458024260006,None,None,-1,383.6458635920062,None,383.04576920500404,383.4623601320054,384.5302075120053,385.030263080007,384.5302075120053,None,0,32,0,,,15,001,exponential,ybgr,0.35-0.75,2021_May_20_1303,color_judgement_and_subjective_perception,2020.2.10,59.982802212220875,
1,0.35,testing,1000,1,,,,,,,,,0,0,0,0,2,2,10,1,,,,,385.6303379750025,None,f,0.2773669050002354,385.73027246100537,None,385.13010758600285,385.5470347549999,386.0302829420034,386.5305206010016,386.0302829420034,None,0,0,35,,,15,001,exponential,ybgr,0.35-0.75,2021_May_20_1303,color_judgement_and_subjective_perception,2020.2.10,59.982802212220875,
0,0.35,testing,1000,1,,,,,,,,,0,0,0,0,2,3,11,0,,,,,387.1307119260018,None,None,-1,387.23068800400506,None,386.6304538480035,387.04738269500376,388.130504423003,388.6308266880005,388.130504423003,None,40,40,0,,,15,001,exponential,ybgr,0.35-0.75,2021_May_20_1303,color_judgement_and_subjective_perception,2020.2.10,59.982802212220875,
0,0.35,testing,1000,1,,,,,,,,,0,0,0,0,3,0,12,0,,,,,389.23072900800616,None,f,0.3648495390007156,389.3308512970034,None,388.7308228040056,389.14757560600265,389.7150794200061,390.2153540890067,389.7150794200061,None,42,42,0,,,15,001,exponential,ybgr,0.35-0.75,2021_May_20_1303,color_judgement_and_subjective_perception,2020.2.10,59.982802212220875,
2,0.35,testing,1000,1,,,,,,,,,0,0,0,0,3,1,13,2,,,,,390.8152012589999,None,k,0.7724453789996915,390.91531353400205,None,390.31514828800573,390.7319370950063,391.71526306500164,392.21553585700167,391.71526306500164,None,0,37,0,,,15,001,exponential,ybgr,0.35-0.75,2021_May_20_1303,color_judgement_and_subjective_perception,2020.2.10,59.982802212220875,
1,0.35,testing,1000,1,,,,,,,,,0,0,0,0,3,2,14,1,,,,,392.81561869000143,None,None,-1,392.9156388600022,None,392.31548757400014,392.7322078740035,393.8154964050045,394.31577656300215,393.8154964050045,None,0,0,40,,,15,001,exponential,ybgr,0.35-0.75,2021_May_20_1303,color_judgement_and_subjective_perception,2020.2.10,59.982802212220875,
3,0.35,testing,1000,1,,,,,,,,,0,0,0,0,3,3,15,3,,,,,394.89995135800564,None,d,0.6477169560021139,394.99999502800347,None,394.4085944690014,394.81673399000283,395.6666491100041,396.16677169400646,395.6666491100041,None,55,18,0,,,15,001,exponential,ybgr,0.35-0.75,2021_May_20_1303,color_judgement_and_subjective_perception,2020.2.10,59.982802212220875,
3,0.35,testing,1000,1,,,,,,,,,0,0,0,0,4,0,16,3,,,,,396.766973651007,None,k,0.4206093970060465,396.867092323002,None,396.26694731500174,396.68378409300203,397.3169296160049,397.8171116210069,397.3169296160049,None,57,19,0,,,15,001,exponential,ybgr,0.35-0.75,2021_May_20_1303,color_judgement_and_subjective_perception,2020.2.10,59.982802212220875,
1,0.35,testing,1000,1,,,,,,,,,0,0,0,0,4,1,17,1,,,,,398.4170997530018,None,None,-1,398.5172205650015,None,397.91711797500466,398.33404995800083,399.4123693070069,399.9018673150058,399.4123693070069,None,0,0,44,,,15,001,exponential,ybgr,0.35-0.75,2021_May_20_1303,color_judgement_and_subjective_perception,2020.2.10,59.982802212220875,
0,0.35,testing,1000,1,,,,,,,,,0,0,0,0,4,2,18,0,,,,,400.50177136300044,None,j,0.5580085780020454,400.60170897100033,None,400.0015928010034,400.4184294220031,401.1849418769998,401.6853242290017,401.1849418769998,None,49,49,0,,,15,001,exponential,ybgr,0.35-0.75,2021_May_20_1303,color_judgement_and_subjective_perception,2020.2.10,59.982802212220875,
2,0.35,testing,1000,1,,,,,,,,,0,0,0,0,4,3,19,2,,,,,402.2854359060002,None,f,0.7582915250022779,402.38540838400513,None,401.78519224600313,402.2020562329999,403.16864831300336,403.66893177700695,403.16864831300336,None,0,44,0,,,15,001,exponential,ybgr,0.35-0.75,2021_May_20_1303,color_judgement_and_subjective_perception,2020.2.10,59.982802212220875,
1,0.35,testing,1000,1,,,,,,,,,0,0,0,0,5,0,20,1,,,,,404.269060647006,None,f,0.7667801569987205,404.36895252800605,None,403.76879454800655,404.1855724430061,405.15305037700455,405.65334922400507,405.15305037700455,None,0,0,48,,,15,001,exponential,ybgr,0.35-0.75,2021_May_20_1303,color_judgement_and_subjective_perception,2020.2.10,59.982802212220875,
2,0.35,testing,1000,1,,,,,,,,,0,0,0,0,5,1,21,2,,,,,406.25350488900585,None,None,-1,406.35348139200505,None,405.7533591620013,406.1701341500011,407.25351794100425,407.75363838400517,407.25351794100425,None,0,45,0,,,15,001,exponential,ybgr,0.35-0.75,2021_May_20_1303,color_judgement_and_subjective_perception,2020.2.10,59.982802212220875,
3,0.35,testing,1000,1,,,,,,,,,0,0,0,0,5,2,22,3,,,,,408.353694231002,None,k,0.3380784059991129,408.4537530470043,None,407.8535556170027,408.270409735007,408.8201828490055,409.3205219080046,408.8201828490055,None,62,21,0,,,15,001,exponential,ybgr,0.35-0.75,2021_May_20_1303,color_judgement_and_subjective_perception,2020.2.10,59.982802212220875,
0,0.35,testing,1000,1,,,,,,,,,0,0,0,0,5,3,23,0,,,,,409.9047785520015,None,k,0.802792476999457,410.0049120170006,None,409.41345874900435,409.82147533300304,410.8380463140056,411.33844449100434,410.8380463140056,None,51,51,0,,,15,001,exponential,ybgr,0.35-0.75,2021_May_20_1303,color_judgement_and_subjective_perception,2020.2.10,59.982802212220875,
3,0.35,testing,1000,1,,,,,,,,,0,0,0,0,6,0,24,3,,,,,411.9385667730021,None,k,0.5531773710026755,412.0385531500069,None,411.4383707350062,411.8551882890024,412.6217738760024,413.1219376570007,412.6217738760024,None,61,20,0,,,15,001,exponential,ybgr,0.35-0.75,2021_May_20_1303,color_judgement_and_subjective_perception,2020.2.10,59.982802212220875,
1,0.35,testing,1000,1,,,,,,,,,0,0,0,0,6,1,25,1,,,,,413.722089613002,None,f,0.45758256100089056,413.8221473510057,None,413.2219556440032,413.63875815800566,414.30533737000223,414.7898248050042,414.30533737000223,None,0,0,46,,,15,001,exponential,ybgr,0.35-0.75,2021_May_20_1303,color_judgement_and_subjective_perception,2020.2.10,59.982802212220875,
0,0.35,testing,1000,1,,,,,,,,,0,0,0,0,6,2,26,0,,,,,415.38995534300193,None,k,0.43786953200469725,415.48980500900507,None,414.88958477100095,415.3065400610067,415.9562783470028,416.45650850200036,415.9562783470028,None,51,51,0,,,15,001,exponential,ybgr,0.35-0.75,2021_May_20_1303,color_judgement_and_subjective_perception,2020.2.10,59.982802212220875,
2,0.35,testing,1000,1,,,,,,,,,0,0,0,0,6,3,27,2,,,,,417.0569140240041,None,d,0.5068034729993087,417.1568897620018,None,416.55635907100077,416.9735251460006,417.6901926210048,418.19020460700267,417.6901926210048,None,0,44,0,,,15,001,exponential,ybgr,0.35-0.75,2021_May_20_1303,color_judgement_and_subjective_perception,2020.2.10,59.982802212220875,
0,0.35,testing,1000,1,,,,,,,,,0,0,0,0,7,0,28,0,,,,,418.79030718500144,None,k,0.7654080779975629,418.8902963569999,None,418.2901741220048,418.7070408120053,419.6744727240002,420.17464428400126,419.6744727240002,None,52,52,0,,,15,001,exponential,ybgr,0.35-0.75,2021_May_20_1303,color_judgement_and_subjective_perception,2020.2.10,59.982802212220875,
3,0.35,testing,1000,1,,,,,,,,,0,0,0,0,7,1,29,3,,,,,420.77466420100245,None,k,0.4608067579974886,420.8748276240003,None,420.27455425400694,420.69131876500614,421.3579721770002,421.82509341500554,421.3579721770002,None,59,20,0,,,15,001,exponential,ybgr,0.35-0.75,2021_May_20_1303,color_judgement_and_subjective_perception,2020.2.10,59.982802212220875,
2,0.35,testing,1000,1,,,,,,,,,0,0,0,0,7,2,30,2,,,,,422.4238612850022,None,None,-1,422.5071389050063,None,421.9249696670013,422.3419275000051,423.358334786004,423.8585126540056,423.358334786004,None,0,46,0,,,15,001,exponential,ybgr,0.35-0.75,2021_May_20_1303,color_judgement_and_subjective_perception,2020.2.10,59.982802212220875,
1,0.35,testing,1000,1,,,,,,,,,0,0,0,0,7,3,31,1,,,,,424.4429461060063,None,k,0.6246029670001008,424.5431220430037,None,423.9583194740044,424.37521707700216,425.1926830960001,425.6929115610037,425.1926830960001,None,0,0,45,,,15,001,exponential,ybgr,0.35-0.75,2021_May_20_1303,color_judgement_and_subjective_perception,2020.2.10,59.982802212220875,
2,0.35,testing,1000,1,,,,,,,,,0,0,0,0,8,0,32,2,,,,,426.2930443800069,None,f,0.6304470729955938,426.3932328390001,None,425.79288497900416,426.2097375730009,427.04305717100215,427.5432243410032,427.04305717100215,None,0,49,0,,,15,001,exponential,ybgr,0.35-0.75,2021_May_20_1303,color_judgement_and_subjective_perception,2020.2.10,59.982802212220875,
1,0.35,testing,1000,1,,,,,,,,,0,0,0,0,8,1,33,1,,,,,428.14329334700597,None,None,-1,428.24336576700443,None,427.6432096610006,428.06000756900175,429.1432967569999,429.62780790900433,429.1432967569999,None,0,0,46,,,15,001,exponential,ybgr,0.35-0.75,2021_May_20_1303,color_judgement_and_subjective_perception,2020.2.10,59.982802212220875,
3,0.35,testing,1000,1,,,,,,,,,0,0,0,0,8,2,34,3,,,,,430.2279361250039,None,k,0.4559806050019688,430.327751195,None,429.72775050800556,430.14447206800105,430.81110601600085,431.31140408500505,430.81110601600085,None,61,20,0,,,15,001,exponential,ybgr,0.35-0.75,2021_May_20_1303,color_judgement_and_subjective_perception,2020.2.10,59.982802212220875,
0,0.35,testing,1000,1,,,,,,,,,0,0,0,0,8,3,35,0,,,,,431.91153165300057,None,None,-1,432.0115512390039,None,431.41129608100164,431.82821933800005,432.9113201979999,433.4116517319999,432.9113201979999,None,56,56,0,,,15,001,exponential,ybgr,0.35-0.75,2021_May_20_1303,color_judgement_and_subjective_perception,2020.2.10,59.982802212220875,
3,0.35,testing,1000,1,,,,,,,,,0,0,0,0,9,0,36,3,,,,,434.01176333800686,None,d,0.2879239879985107,434.11175516300136,None,433.5115443870018,433.92849767900043,434.42533249400003,434.9128096820059,434.42533249400003,None,60,20,0,,,15,001,exponential,ybgr,0.35-0.75,2021_May_20_1303,color_judgement_and_subjective_perception,2020.2.10,59.982802212220875,
2,0.35,testing,1000,1,,,,,,,,,0,0,0,0,9,1,37,2,,,,,435.5127496490022,None,j,0.5948785760047031,435.61284060700564,None,435.0127120630059,435.42948385000636,436.22942251800123,436.72980401600216,436.22942251800123,None,0,53,0,,,15,001,exponential,ybgr,0.35-0.75,2021_May_20_1303,color_judgement_and_subjective_perception,2020.2.10,59.982802212220875,
1,0.35,testing,1000,1,,,,,,,,,0,0,0,0,9,2,38,1,,,,,437.3298905440024,None,f,0.7697721510048723,437.4299293620061,None,436.8297102870056,437.2465489850001,438.22968512500665,438.7299897680059,438.22968512500665,None,0,0,48,,,15,001,exponential,ybgr,0.35-0.75,2021_May_20_1303,color_judgement_and_subjective_perception,2020.2.10,59.982802212220875,
0,0.35,testing,1000,1,,,,,,,,,0,0,0,0,9,3,39,0,,,,,439.3301306470021,None,d,0.6262984650020371,439.4213368960045,None,438.83000348800124,439.24675407000177,440.0808808630027,440.58099104300345,440.0808808630027,None,57,57,0,,,15,001,exponential,ybgr,0.35-0.75,2021_May_20_1303,color_judgement_and_subjective_perception,2020.2.10,59.982802212220875,
0,0.35,testing,1000,1,,,,,,,,,0,0,0,0,10,0,40,0,,,,,441.18107118100306,None,d,0.5905237679980928,441.28119201400114,None,440.68094914700487,441.0979109960026,441.897844223,442.39820021700143,441.897844223,None,57,57,0,,,15,001,exponential,ybgr,0.35-0.75,2021_May_20_1303,color_judgement_and_subjective_perception,2020.2.10,59.982802212220875,
2,0.35,testing,1000,1,,,,,,,,,0,0,0,0,10,1,41,2,,,,,442.9980386650059,None,j,0.6775063160021091,443.09813188900443,None,442.49801998500334,442.91483324,443.7981384970044,444.29833283200423,443.7981384970044,None,0,50,0,,,15,001,exponential,ybgr,0.35-0.75,2021_May_20_1303,color_judgement_and_subjective_perception,2020.2.10,59.982802212220875,
3,0.35,testing,1000,1,,,,,,,,,0,0,0,0,10,2,42,3,,,,,444.8826580370005,None,k,0.5050944769973285,444.98263680100354,None,444.3982034710061,444.7993060450026,445.5157750730068,446.01589936700475,445.5157750730068,None,55,18,0,,,15,001,exponential,ybgr,0.35-0.75,2021_May_20_1303,color_judgement_and_subjective_perception,2020.2.10,59.982802212220875,
1,0.35,testing,1000,1,,,,,,,,,0,0,0,0,10,3,43,1,,,,,446.6162083320014,None,f,0.4514759439989575,446.7162410480014,None,446.1159387370062,446.5328461270037,447.199421850004,447.69964319200517,447.199421850004,None,0,0,42,,,15,001,exponential,ybgr,0.35-0.75,2021_May_20_1303,color_judgement_and_subjective_perception,2020.2.10,59.982802212220875,
1,0.35,testing,1000,1,,,,,,,,,0,0,0,0,11,0,44,1,,,,,448.2996469070058,None,f,0.5840309560007881,448.3996157080037,None,447.79962371400325,448.21645337800146,449.01643359200534,449.5007841080005,449.01643359200534,None,0,0,40,,,15,001,exponential,ybgr,0.35-0.75,2021_May_20_1303,color_judgement_and_subjective_perception,2020.2.10,59.982802212220875,
2,0.35,testing,1000,1,,,,,,,,,0,0,0,0,11,1,45,2,,,,,450.10068790000514,None,d,0.8709703049971722,450.20073333800246,None,449.60083630700683,450.017492898005,451.10084611500497,451.601148972004,451.10084611500497,None,0,45,0,,,15,001,exponential,ybgr,0.35-0.75,2021_May_20_1303,color_judgement_and_subjective_perception,2020.2.10,59.982802212220875,
0,0.35,testing,1000,1,,,,,,,,,0,0,0,0,11,2,46,0,,,,,452.20122697199986,None,j,0.8344112470003893,452.3013183100047,None,451.70101944300404,452.1178442630044,453.16769557000225,453.66800522100675,453.16769557000225,None,50,50,0,,,15,001,exponential,ybgr,0.35-0.75,2021_May_20_1303,color_judgement_and_subjective_perception,2020.2.10,59.982802212220875,
3,0.35,testing,1000,1,,,,,,,,,0,0,0,0,11,3,47,3,,,,,454.2682003190057,None,k,0.49531369299802464,454.3682569970042,None,453.76800702699984,454.18488540399994,454.8855923270021,455.3857559980024,454.8855923270021,None,49,16,0,,,15,001,exponential,ybgr,0.35-0.75,2021_May_20_1303,color_judgement_and_subjective_perception,2020.2.10,59.982802212220875,
0,0.35,testing,1000,1,,,,,,,,,0,0,0,0,12,0,48,0,,,,,455.98581342400576,None,f,0.6578710530011449,456.08587545300543,None,455.4856275160055,455.9026670210005,456.7691677200055,457.26945425000304,456.7691677200055,None,47,47,0,,,15,001,exponential,ybgr,0.35-0.75,2021_May_20_1303,color_judgement_and_subjective_perception,2020.2.10,59.982802212220875,
3,0.35,testing,1000,1,,,,,,,,,0,0,0,0,12,1,49,3,,,,,457.86947258400323,None,k,0.8141180710008484,457.969564772,None,457.36928876800084,457.78622241600533,458.80278754100436,459.3029504750011,458.80278754100436,None,46,15,0,,,15,001,exponential,ybgr,0.35-0.75,2021_May_20_1303,color_judgement_and_subjective_perception,2020.2.10,59.982802212220875,
1,0.35,testing,1000,1,,,,,,,,,0,0,0,0,12,2,50,1,,,,,459.88726910400146,None,f,0.6843380500067724,459.98737811700266,None,459.40288325900474,459.80416683900694,460.7039776320016,461.2042437660057,460.7039776320016,None,0,0,33,,,15,001,exponential,ybgr,0.35-0.75,2021_May_20_1303,color_judgement_and_subjective_perception,2020.2.10,59.982802212220875,
2,0.35,testing,1000,1,,,,,,,,,0,0,0,0,12,3,51,2,,,,,461.8043059840056,None,j,0.615392861996952,461.9042592350015,None,461.30407416100206,461.7210163030031,462.53772142300295,463.0379104540043,462.53772142300295,None,0,38,0,,,15,001,exponential,ybgr,0.35-0.75,2021_May_20_1303,color_judgement_and_subjective_perception,2020.2.10,59.982802212220875,
0,0.35,testing,1000,1,,,,,,,,,0,0,0,0,13,0,52,0,,,,,463.63776431600127,None,f,0.7897167629998876,463.7379458900032,None,463.1377539140012,463.55443819799984,464.5553799850022,465.05541276900476,464.5553799850022,None,44,44,0,,,15,001,exponential,ybgr,0.35-0.75,2021_May_20_1303,color_judgement_and_subjective_perception,2020.2.10,59.982802212220875,
3,0.35,testing,1000,1,,,,,,,,,0,0,0,0,13,1,53,3,,,,,465.655507856005,None,k,0.5961164350010222,465.7555655000033,None,465.1556123190021,465.5722794470057,466.3723677030066,466.872688923002,466.3723677030066,None,41,14,0,,,15,001,exponential,ybgr,0.35-0.75,2021_May_20_1303,color_judgement_and_subjective_perception,2020.2.10,59.982802212220875,
2,0.35,testing,1000,1,,,,,,,,,0,0,0,0,13,2,54,2,,,,,467.47267452000233,None,f,0.8031017870016512,467.5726063320035,None,466.97253393000574,467.3892985840066,468.40589567400457,468.90631312200276,468.40589567400457,None,0,34,0,,,15,001,exponential,ybgr,0.35-0.75,2021_May_20_1303,color_judgement_and_subjective_perception,2020.2.10,59.982802212220875,
1,0.35,testing,1000,1,,,,,,,,,0,0,0,0,13,3,55,1,,,,,469.4905984240031,None,None,-1,469.59051287700277,None,469.00612484500016,469.4218443280042,470.4904950820055,470.99064574800286,470.4904950820055,None,0,0,27,,,15,001,exponential,ybgr,0.35-0.75,2021_May_20_1303,color_judgement_and_subjective_perception,2020.2.10,59.982802212220875,
1,0.35,testing,1000,1,,,,,,,,,0,0,0,0,14,0,56,1,,,,,471.55758141000115,None,f,0.5019925379965571,471.65766728300514,None,471.0905713990069,471.4741824750017,472.18938658100524,472.67296721700404,472.18938658100524,None,0,0,27,,,15,001,exponential,ybgr,0.35-0.75,2021_May_20_1303,color_judgement_and_subjective_perception,2020.2.10,59.982802212220875,
3,0.35,testing,1000,1,,,,,,,,,0,0,0,0,14,1,57,3,,,,,473.04473027300264,None,None,-1,473.10146247000375,None,472.74470370400377,472.99881058400206,473.62205049600016,473.90936673000397,473.62205049600016,None,38,13,0,,,15,001,exponential,ybgr,0.35-0.75,2021_May_20_1303,color_judgement_and_subjective_perception,2020.2.10,59.982802212220875,
2,0.35,testing,1000,1,,,,,,,,,0,0,0,0,14,2,58,2,,,,,474.4326647470007,None,d,0.6981756529930863,474.5255240530023,None,473.9687025900057,474.35786150500644,475.24189955500333,475.74222172400187,475.24189955500333,None,0,31,0,,,15,001,exponential,ybgr,0.35-0.75,2021_May_20_1303,color_judgement_and_subjective_perception,2020.2.10,59.982802212220875,
0,0.35,testing,1000,1,,,,,,,,,0,0,0,0,14,3,59,0,,,,,476.34231131300476,None,k,0.5172405370030901,476.4423853230037,None,475.84212474500237,476.2589139500051,476.9920777960069,477.4925082990012,476.9920777960069,None,42,42,0,,,15,001,exponential,ybgr,0.35-0.75,2021_May_20_1303,color_judgement_and_subjective_perception,2020.2.10,59.982802212220875,
2,0.35,testing,1000,1,,,,,,,,,0,0,0,0,15,0,60,2,,,,,478.09258952500386,None,j,0.5431858020019718,478.19254857200576,None,477.59245079700486,478.0092702290058,478.7590137780062,479.2593953540054,478.7590137780062,None,0,34,0,,,15,001,exponential,ybgr,0.35-0.75,2021_May_20_1303,color_judgement_and_subjective_perception,2020.2.10,59.982802212220875,
0,0.35,testing,1000,1,,,,,,,,,0,0,0,0,15,1,61,0,,,,,479.84360535900487,None,f,0.49613974999374477,479.94357372000377,None,479.3593827730001,479.7604994120047,480.4602090910048,480.9603338960005,480.4602090910048,None,43,43,0,,,15,001,exponential,ybgr,0.35-0.75,2021_May_20_1303,color_judgement_and_subjective_perception,2020.2.10,59.982802212220875,
3,0.35,testing,1000,1,,,,,,,,,0,0,0,0,15,2,62,3,,,,,481.56067269600317,None,k,0.4989898929998162,481.6607204410029,None,481.0603319370057,481.4771185999998,482.17723930500506,482.6773562080052,482.17723930500506,None,38,13,0,,,15,001,exponential,ybgr,0.35-0.75,2021_May_20_1303,color_judgement_and_subjective_perception,2020.2.10,59.982802212220875,
1,0.35,testing,1000,1,,,,,,,,,0,0,0,0,15,3,63,1,,,,,483.2773359690036,None,k,0.3905713049971382,483.37715896900045,None,482.777204238002,483.1941057080039,483.7940209100052,484.2943017220023,483.7940209100052,None,0,0,25,,,15,001,exponential,ybgr,0.35-0.75,2021_May_20_1303,color_judgement_and_subjective_perception,2020.2.10,59.982802212220875,
3,0.35,testing,1000,1,,,,,,,,,0,0,0,0,16,0,64,3,,,,,484.8786876810045,None,k,0.4769408409993048,484.97869859500497,None,484.3942002850017,484.7952189200005,485.478434042001,485.97866456200427,485.478434042001,None,35,12,0,,,15,001,exponential,ybgr,0.35-0.75,2021_May_20_1303,color_judgement_and_subjective_perception,2020.2.10,59.982802212220875,
2,0.35,testing,1000,1,,,,,,,,,0,0,0,0,16,1,65,2,,,,,486.57890673100337,None,f,0.45696219700039364,486.6787981610032,None,486.07857011200394,486.49532820300374,487.1620865520017,487.66210193400184,487.1620865520017,None,0,30,0,,,15,001,exponential,ybgr,0.35-0.75,2021_May_20_1303,color_judgement_and_subjective_perception,2020.2.10,59.982802212220875,
1,0.35,testing,1000,1,,,,,,,,,0,0,0,0,16,2,66,1,,,,,488.2624259820004,None,j,0.6933790370021597,488.36235743300495,None,487.762231738001,488.17910784900596,489.07906941100373,489.5636461210015,489.07906941100373,None,0,0,21,,,15,001,exponential,ybgr,0.35-0.75,2021_May_20_1303,color_judgement_and_subjective_perception,2020.2.10,59.982802212220875,
0,0.35,testing,1000,1,,,,,,,,,0,0,0,0,16,3,67,0,,,,,490.16355128200667,None,j,0.8562573949966463,490.26345869200304,None,489.66348383600416,490.0801275640042,491.1468931240015,491.6472921960012,491.1468931240015,None,42,42,0,,,15,001,exponential,ybgr,0.35-0.75,2021_May_20_1303,color_judgement_and_subjective_perception,2020.2.10,59.982802212220875,
3,0.35,testing,1000,1,,,,,,,,,0,0,0,0,17,0,68,3,,,,,492.24730630100385,None,k,0.7883577789980336,492.34734759200364,None,491.74705992200325,492.1639426450056,493.16368427900306,493.66417137600365,493.16368427900306,None,34,11,0,,,15,001,exponential,ybgr,0.35-0.75,2021_May_20_1303,color_judgement_and_subjective_perception,2020.2.10,59.982802212220875,
0,0.35,testing,1000,1,,,,,,,,,0,0,0,0,17,1,69,0,,,,,494.26404307300254,None,k,0.4115229140006704,494.36415221900097,None,493.7640231149999,494.1806854450042,494.7981306780057,495.2983724670048,494.7981306780057,None,43,43,0,,,15,001,exponential,ybgr,0.35-0.75,2021_May_20_1303,color_judgement_and_subjective_perception,2020.2.10,59.982802212220875,
2,0.35,testing,1000,1,,,,,,,,,0,0,0,0,17,2,70,2,,,,,495.89859286400315,None,None,-1,495.9986757450024,None,495.39850828800263,495.81523183200625,496.8986195210018,497.398947614005,496.8986195210018,None,0,32,0,,,15,001,exponential,ybgr,0.35-0.75,2021_May_20_1303,color_judgement_and_subjective_perception,2020.2.10,59.982802212220875,
1,0.35,testing,1000,1,,,,,,,,,0,0,0,0,17,3,71,1,,,,,497.9988847660061,None,f,0.5007506490001106,498.0989479840064,None,497.49867009500304,497.9154451240029,498.63191420600197,499.1323321650052,498.63191420600197,None,0,0,23,,,15,001,exponential,ybgr,0.35-0.75,2021_May_20_1303,color_judgement_and_subjective_perception,2020.2.10,59.982802212220875,
1,0.35,testing,1000,1,,,,,,,,,0,0,0,0,18,0,72,1,,,,,499.71673280700634,None,f,0.751054683001712,499.8166746850038,None,499.23231324800145,499.63342509700306,500.5998814170016,501.10019525100506,500.5998814170016,None,0,0,21,,,15,001,exponential,ybgr,0.35-0.75,2021_May_20_1303,color_judgement_and_subjective_perception,2020.2.10,59.982802212220875,
2,0.35,testing,1000,1,,,,,,,,,0,0,0,0,18,1,73,2,,,,,501.70034312100324,None,k,0.6154140529979486,501.80026606700267,None,501.20002073800424,501.6169746320011,502.4334832240056,502.93374879500334,502.4334832240056,None,0,32,0,,,15,001,exponential,ybgr,0.35-0.75,2021_May_20_1303,color_judgement_and_subjective_perception,2020.2.10,59.982802212220875,
3,0.35,testing,1000,1,,,,,,,,,0,0,0,0,18,2,74,3,,,,,503.5338936260014,None,j,0.4698225329993875,503.63385497000127,None,503.0334816100003,503.4505377510068,504.1339299820029,504.618238355004,504.1339299820029,None,31,10,0,,,15,001,exponential,ybgr,0.35-0.75,2021_May_20_1303,color_judgement_and_subjective_perception,2020.2.10,59.982802212220875,
0,0.35,testing,1000,1,,,,,,,,,0,0,0,0,18,3,75,0,,,,,505.21816578700236,None,k,0.2733751339983428,505.3182956170058,None,504.71823979800683,505.1350844550034,505.61811404400214,506.11832379700354,505.61811404400214,None,44,44,0,,,15,001,exponential,ybgr,0.35-0.75,2021_May_20_1303,color_judgement_and_subjective_perception,2020.2.10,59.982802212220875,
1,0.35,testing,1000,1,,,,,,,,,0,0,0,0,19,0,76,1,,,,,506.71852545,None,d,0.31706571899849223,506.8185653649998,None,506.21835249600554,506.6352432060012,507.16847319299995,507.66857245300343,507.16847319299995,None,0,0,20,,,15,001,exponential,ybgr,0.35-0.75,2021_May_20_1303,color_judgement_and_subjective_perception,2020.2.10,59.982802212220875,
0,0.35,testing,1000,1,,,,,,,,,0,0,0,0,19,1,77,0,,,,,508.26865018600074,None,f,0.35104610300186323,508.3686714150026,None,507.7686983140011,508.18525824200333,508.7519911210038,509.25223366200225,508.7519911210038,None,47,47,0,,,15,001,exponential,ybgr,0.35-0.75,2021_May_20_1303,color_judgement_and_subjective_perception,2020.2.10,59.982802212220875,
2,0.35,testing,1000,1,,,,,,,,,0,0,0,0,19,2,78,2,,,,,509.83652858800633,None,j,0.775303647002147,509.9364422150029,None,509.3521277720065,509.75326029900316,510.73633452800277,511.23665241500566,510.73633452800277,None,0,36,0,,,15,001,exponential,ybgr,0.35-0.75,2021_May_20_1303,color_judgement_and_subjective_perception,2020.2.10,59.982802212220875,
3,0.35,testing,1000,1,,,,,,,,,0,0,0,0,19,3,79,3,,,,,511.83676835600636,None,j,0.8788586779992329,511.93679490300565,None,511.3365894580056,511.7534402440069,512.8368177370066,513.3368289240025,512.8368177370066,None,33,11,0,,,15,001,exponential,ybgr,0.35-0.75,2021_May_20_1303,color_judgement_and_subjective_perception,2020.2.10,59.982802212220875,
0,0.35,testing,1000,1,,,,,,,,,0,0,0,0,20,0,80,0,,,,,513.9370187490058,None,k,0.7784649440000067,514.0371266080037,None,513.4368491070054,513.853643127004,514.8378871630048,515.3380760600048,514.8378871630048,None,49,49,0,,,15,001,exponential,ybgr,0.35-0.75,2021_May_20_1303,color_judgement_and_subjective_perception,2020.2.10,59.982802212220875,
2,0.35,testing,1000,1,,,,,,,,,0,0,0,0,20,1,81,2,,,,,515.938077441002,None,f,0.7776127479955903,516.0380108610043,None,515.4380423420007,515.854966056002,516.838295160007,517.3386238000021,516.838295160007,None,0,36,0,,,15,001,exponential,ybgr,0.35-0.75,2021_May_20_1303,color_judgement_and_subjective_perception,2020.2.10,59.982802212220875,
1,0.35,testing,1000,1,,,,,,,,,0,0,0,0,20,2,82,1,,,,,517.938442714003,None,d,0.5771576050028671,518.0385007730001,None,517.4383980550047,517.8551572320066,518.6384889340043,519.138771720005,518.6384889340043,None,0,0,23,,,15,001,exponential,ybgr,0.35-0.75,2021_May_20_1303,color_judgement_and_subjective_perception,2020.2.10,59.982802212220875,
3,0.35,testing,1000,1,,,,,,,,,0,0,0,0,20,3,83,3,,,,,519.7230219410048,None,None,-1,519.8229876910045,None,519.2387374099999,519.639716223006,520.7228536250041,521.2232345010052,520.7228536250041,None,36,12,0,,,15,001,exponential,ybgr,0.35-0.75,2021_May_20_1303,color_judgement_and_subjective_perception,2020.2.10,59.982802212220875,
0,0.35,testing,1000,1,,,,,,,,,0,0,0,0,21,0,84,0,,,,,521.8233494619999,None,k,0.8684448479980347,521.9232837680029,None,521.3231023740009,521.7399067210063,522.8232607280006,523.3234158680061,522.8232607280006,None,54,54,0,,,15,001,exponential,ybgr,0.35-0.75,2021_May_20_1303,color_judgement_and_subjective_perception,2020.2.10,59.982802212220875,
2,0.35,testing,1000,1,,,,,,,,,0,0,0,0,21,1,85,2,,,,,523.9234622680015,None,j,0.7762209180000355,524.0234824770014,None,523.4233384470062,523.8401909260065,524.8243031400052,525.3245319940033,524.8243031400052,None,0,41,0,,,15,001,exponential,ybgr,0.35-0.75,2021_May_20_1303,color_judgement_and_subjective_perception,2020.2.10,59.982802212220875,
3,0.35,testing,1000,1,,,,,,,,,0,0,0,0,21,2,86,3,,,,,525.9247357820059,None,k,0.7510703340012697,526.0245518570009,None,525.4245584820019,525.8414086150005,526.8079724690033,527.308352813001,526.8079724690033,None,40,13,0,,,15,001,exponential,ybgr,0.35-0.75,2021_May_20_1303,color_judgement_and_subjective_perception,2020.2.10,59.982802212220875,
1,0.35,testing,1000,1,,,,,,,,,0,0,0,0,21,3,87,1,,,,,527.9082788400046,None,j,0.8393735040008323,528.0083585500033,None,527.4081209590004,527.8249779410035,528.8750029270013,529.3751950120059,528.8750029270013,None,0,0,27,,,15,001,exponential,ybgr,0.35-0.75,2021_May_20_1303,color_judgement_and_subjective_perception,2020.2.10,59.982802212220875,
2,0.35,testing,1000,1,,,,,,,,,0,0,0,0,22,0,88,2,,,,,529.9594408830017,None,j,0.7881519359943923,530.059562675,None,529.4680035790007,529.8760102990054,530.8760316059997,531.3764953300051,530.8760316059997,None,0,39,0,,,15,001,exponential,ybgr,0.35-0.75,2021_May_20_1303,color_judgement_and_subjective_perception,2020.2.10,59.982802212220875,
3,0.35,testing,1000,1,,,,,,,,,0,0,0,0,22,1,89,3,,,,,531.9765654650037,None,k,0.539182016000268,532.0765053040013,None,531.4763281520063,531.8932320140011,532.643025357007,533.1433385950004,532.643025357007,None,36,12,0,,,15,001,exponential,ybgr,0.35-0.75,2021_May_20_1303,color_judgement_and_subjective_perception,2020.2.10,59.982802212220875,
0,0.35,testing,1000,1,,,,,,,,,0,0,0,0,22,2,90,0,,,,,533.7432883110014,None,None,-1,533.843491132,None,533.2432382120023,533.6598647220017,534.7274414970016,535.2278150730053,534.7274414970016,None,53,53,0,,,15,001,exponential,ybgr,0.35-0.75,2021_May_20_1303,color_judgement_and_subjective_perception,2020.2.10,59.982802212220875,
1,0.35,testing,1000,1,,,,,,,,,0,0,0,0,22,3,91,1,,,,,535.8277599050052,None,k,0.6399657290021423,535.9277530460022,None,535.3276137120047,535.7443810310069,536.5944588730054,537.0949414830029,536.5944588730054,None,0,0,24,,,15,001,exponential,ybgr,0.35-0.75,2021_May_20_1303,color_judgement_and_subjective_perception,2020.2.10,59.982802212220875,
2,0.35,testing,1000,1,,,,,,,,,0,0,0,0,23,0,92,2,,,,,537.6947779160037,None,f,0.39696405499853427,537.7947742260003,None,537.1948835150033,537.6114373400051,538.2113318040065,538.7116263890057,538.2113318040065,None,0,36,0,,,15,001,exponential,ybgr,0.35-0.75,2021_May_20_1303,color_judgement_and_subjective_perception,2020.2.10,59.982802212220875,
0,0.35,testing,1000,1,,,,,,,,,0,0,0,0,23,1,93,0,,,,,539.3115608530061,None,d,0.4117940650030505,539.4118335750027,None,538.8116326850068,539.2281875000044,539.8458016470031,540.3461429590025,539.8458016470031,None,55,55,0,,,15,001,exponential,ybgr,0.35-0.75,2021_May_20_1303,color_judgement_and_subjective_perception,2020.2.10,59.982802212220875,
1,0.35,testing,1000,1,,,,,,,,,0,0,0,0,23,2,94,1,,,,,540.9460453250067,None,d,0.5056016910020844,541.0461415210011,None,540.4459284130062,540.8628111640064,541.579382890006,542.0797148000056,541.579382890006,None,0,0,26,,,15,001,exponential,ybgr,0.35-0.75,2021_May_20_1303,color_judgement_and_subjective_perception,2020.2.10,59.982802212220875,
3,0.35,testing,1000,1,,,,,,,,,0,0,0,0,23,3,95,3,,,,,542.6796901130001,None,k,0.6360262909947778,542.7796824790057,None,542.179535936004,542.5964627140056,543.4463710290001,543.9463257850002,543.4463710290001,None,35,12,0,,,15,001,exponential,ybgr,0.35-0.75,2021_May_20_1303,color_judgement_and_subjective_perception,2020.2.10,59.982802212220875,
3,0.35,testing,1000,1,,,,,,,,,0,0,0,0,,,,,0,0,0,3,565.920605831001,None,k,0.6510714079995523,566.0206812520046,None,565.4204346030019,565.8373349720059,566.7050893490014,567.2043409250036,566.7050893490014,None,33,11,0,544.058833165007,None,15,001,exponential,ybgr,0.35-0.75,2021_May_20_1303,color_judgement_and_subjective_perception,2020.2.10,59.982802212220875,
0,0.35,testing,1000,1,,,,,,,,,0,0,0,0,,,,,0,1,1,0,567.8043149300065,None,None,-1,567.9043873170012,None,567.3040936280013,567.721012716007,568.8046405850037,569.3045513790057,568.8046405850037,None,54,54,0,None,None,15,001,exponential,ybgr,0.35-0.75,2021_May_20_1303,color_judgement_and_subjective_perception,2020.2.10,59.982802212220875,
1,0.35,testing,1000,1,,,,,,,,,0,0,0,0,,,,,0,2,2,1,569.8888592710064,None,f,0.7389287299956777,569.9887923900023,None,569.404399967003,569.8059242640011,570.756743979,571.2555320970059,570.756743979,None,0,0,25,None,None,15,001,exponential,ybgr,0.35-0.75,2021_May_20_1303,color_judgement_and_subjective_perception,2020.2.10,59.982802212220875,
2,0.35,testing,1000,1,,,,,,,,,0,0,0,0,,,,,0,3,3,2,571.8556413180049,None,f,0.6917578369975672,571.9559407800043,None,571.3554615890025,571.7724831470041,572.6735994030023,573.1726354680068,572.6735994030023,None,0,32,0,None,None,15,001,exponential,ybgr,0.35-0.75,2021_May_20_1303,color_judgement_and_subjective_perception,2020.2.10,59.982802212220875,
3,0.35,testing,1000,1,,,,,,,,,0,0,0,0,,,,,1,0,4,3,573.772680990005,None,f,0.6309421580008348,573.8727628910056,None,573.2725063430044,573.6894159630028,574.5234306750062,575.0237272670056,574.5234306750062,None,28,9,0,None,None,15,001,exponential,ybgr,0.35-0.75,2021_May_20_1303,color_judgement_and_subjective_perception,2020.2.10,59.982802212220875,
1,0.35,testing,1000,1,,,,,,,,,0,0,0,0,,,,,1,1,5,1,575.6237205720026,None,k,0.37991057399631245,575.7238240980005,None,575.1234812430048,575.5405407610015,576.1236641990035,576.6239244970056,576.1236641990035,None,0,0,23,None,None,15,001,exponential,ybgr,0.35-0.75,2021_May_20_1303,color_judgement_and_subjective_perception,2020.2.10,59.982802212220875,
2,0.35,testing,1000,1,,,,,,,,,0,0,0,0,,,,,1,2,6,2,577.2241893940009,None,None,-1,577.3241038060005,None,576.7237060770058,577.1409289850053,578.2244484080002,578.724226530001,578.2244484080002,None,0,34,0,None,None,15,001,exponential,ybgr,0.35-0.75,2021_May_20_1303,color_judgement_and_subjective_perception,2020.2.10,59.982802212220875,
1,0.35,testing,1000,1,,,,,,,,,0,0,0,0,,,,,1,3,7,1,579.3243492150068,None,j,0.7432423880018177,579.4244881990016,None,578.8241367620067,579.2410619440052,580.1933268980065,580.6920128720012,580.1933268980065,None,0,0,26,None,None,15,001,exponential,ybgr,0.35-0.75,2021_May_20_1303,color_judgement_and_subjective_perception,2020.2.10,59.982802212220875,
2,0.35,testing,1000,1,,,,,,,,,0,0,0,0,,,,,2,0,8,2,581.2922296410034,None,k,0.6395149870004389,581.3921915900064,None,580.7917790660067,581.2087805300034,582.0588800440019,582.5590068460006,582.0588800440019,None,0,37,0,None,None,15,001,exponential,ybgr,0.35-0.75,2021_May_20_1303,color_judgement_and_subjective_perception,2020.2.10,59.982802212220875,
0,0.35,testing,1000,1,,,,,,,,,0,0,0,0,,,,,2,1,9,0,583.1589852440011,None,j,0.2767943029975868,583.2589439350049,None,582.6588790300011,583.0757048010055,583.5590168380004,584.0592473470024,583.5590168380004,None,57,57,0,None,None,15,001,exponential,ybgr,0.35-0.75,2021_May_20_1303,color_judgement_and_subjective_perception,2020.2.10,59.982802212220875,
0,0.35,testing,1000,1,,,,,,,,,0,0,0,0,,,,,2,2,10,0,584.6434091950068,None,f,0.2641578170005232,584.7436533230066,None,584.1590338380047,584.5601988449998,585.0267322180007,585.5269446340026,585.0267322180007,None,59,59,0,None,None,15,001,exponential,ybgr,0.35-0.75,2021_May_20_1303,color_judgement_and_subjective_perception,2020.2.10,59.982802212220875,
3,0.35,testing,1000,1,,,,,,,,,0,0,0,0,,,,,2,3,11,3,586.1270204640023,None,k,0.47665658900223207,586.227083689002,None,585.6267098800017,586.0437474760038,586.7284490940001,587.2273704350009,586.7284490940001,None,34,11,0,None,None,15,001,exponential,ybgr,0.35-0.75,2021_May_20_1303,color_judgement_and_subjective_perception,2020.2.10,59.982802212220875,
0,0.35,testing,1000,1,,,,,,,,,0,0,0,0,,,,,3,0,12,0,587.8272708860022,None,j,0.584523650999472,587.9271876580024,None,587.3269803889998,587.744040676007,588.5450821070044,589.0442623640047,588.5450821070044,None,62,62,0,None,None,15,001,exponential,ybgr,0.35-0.75,2021_May_20_1303,color_judgement_and_subjective_perception,2020.2.10,59.982802212220875,
2,0.35,testing,1000,1,,,,,,,,,0,0,0,0,,,,,3,1,13,2,589.6283845070066,None,None,-1,589.7284268930016,None,589.1438395970035,589.5449902210021,590.628931694002,591.1285931780003,590.628931694002,None,0,43,0,None,None,15,001,exponential,ybgr,0.35-0.75,2021_May_20_1303,color_judgement_and_subjective_perception,2020.2.10,59.982802212220875,
0,0.35,testing,1000,1,,,,,,,,,0,0,0,0,,,,,3,2,14,0,591.7287356930028,None,j,0.810836990000098,591.8287909840001,None,591.2283761350045,591.6453851730039,592.663547684002,593.1621982810029,592.663547684002,None,65,65,0,None,None,15,001,exponential,ybgr,0.35-0.75,2021_May_20_1303,color_judgement_and_subjective_perception,2020.2.10,59.982802212220875,
1,0.35,testing,1000,1,,,,,,,,,0,0,0,0,,,,,3,3,15,1,593.7623777150002,None,k,0.617288228997495,593.8624333090047,None,593.2620044570067,593.6788557120017,594.5027190770052,594.9968499990064,594.5027190770052,None,0,0,35,None,None,15,001,exponential,ybgr,0.35-0.75,2021_May_20_1303,color_judgement_and_subjective_perception,2020.2.10,59.982802212220875,
2,0.35,testing,1000,1,,,,,,,,,0,0,0,0,,,,,4,0,16,2,595.5968161390047,None,f,0.38293196800077567,595.6967640420044,None,595.0964773640007,595.5134079180061,596.0967019960008,596.5968666650006,596.0967019960008,None,0,47,0,None,None,15,001,exponential,ybgr,0.35-0.75,2021_May_20_1303,color_judgement_and_subjective_perception,2020.2.10,59.982802212220875,
2,0.35,testing,1000,1,,,,,,,,,0,0,0,0,,,,,4,1,17,2,597.1971199480031,None,j,0.4545632739973371,597.2970994820062,None,596.6967967119999,597.1138312700059,597.7819610300066,598.2805976020027,597.7819610300066,None,0,49,0,None,None,15,001,exponential,ybgr,0.35-0.75,2021_May_20_1303,color_judgement_and_subjective_perception,2020.2.10,59.982802212220875,
0,0.35,testing,1000,1,,,,,,,,,0,0,0,0,,,,,4,2,18,0,598.8806822270053,None,d,0.6910623800067697,598.9806515900054,None,598.3802595290035,598.7972046650029,599.6981389960056,600.1982454080062,599.6981389960056,None,70,70,0,None,None,15,001,exponential,ybgr,0.35-0.75,2021_May_20_1303,color_judgement_and_subjective_perception,2020.2.10,59.982802212220875,
2,0.35,testing,1000,1,,,,,,,,,0,0,0,0,,,,,4,3,19,2,600.7983698990065,None,j,0.4934974440038786,600.8982805620035,None,600.2978856660047,600.7150282770017,601.4150512240012,601.9153275120043,601.4150512240012,None,0,48,0,None,None,15,001,exponential,ybgr,0.35-0.75,2021_May_20_1303,color_judgement_and_subjective_perception,2020.2.10,59.982802212220875,
2,0.35,testing,1000,1,,,,,,,,,0,0,0,0,,,,,5,0,20,2,602.5153620000056,None,f,0.8644141900003888,602.6152742160048,None,602.0150848430058,602.4318960880046,603.5002500610062,603.9988674630004,603.5002500610062,None,0,46,0,None,None,15,001,exponential,ybgr,0.35-0.75,2021_May_20_1303,color_judgement_and_subjective_perception,2020.2.10,59.982802212220875,
2,0.35,testing,1000,1,,,,,,,,,0,0,0,0,,,,,5,1,21,2,604.5831910490015,None,j,0.7404891230034991,604.6832213350062,None,604.0988686350029,604.5001677670007,605.451295966006,605.9500394650022,605.451295966006,None,0,44,0,None,None,15,001,exponential,ybgr,0.35-0.75,2021_May_20_1303,color_judgement_and_subjective_perception,2020.2.10,59.982802212220875,
0,0.35,testing,1000,1,,,,,,,,,0,0,0,0,,,,,5,2,22,0,606.549982495002,None,d,0.5974764269994921,606.6502194510031,None,606.0498793020015,606.466867133,607.2668582870028,607.7669099460036,607.2668582870028,None,67,67,0,None,None,15,001,exponential,ybgr,0.35-0.75,2021_May_20_1303,color_judgement_and_subjective_perception,2020.2.10,59.982802212220875,
1,0.35,testing,1000,1,,,,,,,,,0,0,0,0,,,,,5,3,23,1,608.3670695280016,None,f,0.7325573010020889,608.4671314250008,None,607.8668223480054,608.2836331180006,609.2170166580036,609.7016157270045,609.2170166580036,None,0,0,34,None,None,15,001,exponential,ybgr,0.35-0.75,2021_May_20_1303,color_judgement_and_subjective_perception,2020.2.10,59.982802212220875,
1,0.35,testing,1000,1,,,,,,,,,0,0,0,0,,,,,6,0,24,1,610.301506681004,None,f,0.6143230430025142,610.4014251100016,None,609.8013229120043,610.2182943590014,611.0348088380051,611.5350402090044,611.0348088380051,None,0,0,32,None,None,15,001,exponential,ybgr,0.35-0.75,2021_May_20_1303,color_judgement_and_subjective_perception,2020.2.10,59.982802212220875,
2,0.35,testing,1000,1,,,,,,,,,0,0,0,0,,,,,6,1,25,2,612.1351470139998,None,j,0.7884371300024213,612.2352697380047,None,611.6348554400029,612.0517821120011,613.0516677720007,613.5520183290064,613.0516677720007,None,0,39,0,None,None,15,001,exponential,ybgr,0.35-0.75,2021_May_20_1303,color_judgement_and_subjective_perception,2020.2.10,59.982802212220875,
1,0.35,testing,1000,1,,,,,,,,,0,0,0,0,,,,,6,2,26,1,614.152100020001,None,f,0.6436152829992352,614.2521002360008,None,613.6516889630002,614.0687361050004,614.9195836500003,615.4197152950001,614.9195836500003,None,0,0,29,None,None,15,001,exponential,ybgr,0.35-0.75,2021_May_20_1303,color_judgement_and_subjective_perception,2020.2.10,59.982802212220875,
0,0.35,testing,1000,1,,,,,,,,,0,0,0,0,,,,,6,3,27,0,616.0198054550056,None,d,0.38393635299871676,616.1197264380025,None,615.5195174649998,615.9365115320034,616.5364509470019,617.0367640910044,616.5364509470019,None,61,61,0,None,None,15,001,exponential,ybgr,0.35-0.75,2021_May_20_1303,color_judgement_and_subjective_perception,2020.2.10,59.982802212220875,
0,0.35,testing,1000,1,,,,,,,,,0,0,0,0,,,,,7,0,28,0,617.6368341110065,None,d,0.5348343659934471,617.736860847006,None,617.1366413470023,617.5534619610044,618.3032566940019,618.8035763000007,618.3032566940019,None,59,59,0,None,None,15,001,exponential,ybgr,0.35-0.75,2021_May_20_1303,color_judgement_and_subjective_perception,2020.2.10,59.982802212220875,
1,0.35,testing,1000,1,,,,,,,,,0,0,0,0,,,,,7,1,29,1,619.4036368900051,None,f,0.5846283349965233,619.4950881710029,None,618.9034387210049,619.3204058860065,620.1043485230039,620.6046591570048,620.1043485230039,None,0,0,25,None,None,15,001,exponential,ybgr,0.35-0.75,2021_May_20_1303,color_judgement_and_subjective_perception,2020.2.10,59.982802212220875,
1,0.35,testing,1000,1,,,,,,,,,0,0,0,0,,,,,7,2,30,1,621.2047841040039,None,f,0.4629674559982959,621.3047766550008,None,620.7044592340026,621.1214224710056,621.7881509900035,622.2883881670059,621.7881509900035,None,0,0,23,None,None,15,001,exponential,ybgr,0.35-0.75,2021_May_20_1303,color_judgement_and_subjective_perception,2020.2.10,59.982802212220875,
0,0.35,testing,1000,1,,,,,,,,,0,0,0,0,,,,,7,3,31,0,622.8882675710047,None,d,0.6193119710005703,622.9883773020047,None,622.3882132920044,622.8049678800016,623.638311005001,624.1386897460034,623.638311005001,None,55,55,0,None,None,15,001,exponential,ybgr,0.35-0.75,2021_May_20_1303,color_judgement_and_subjective_perception,2020.2.10,59.982802212220875,
0,0.35,testing,1000,1,,,,,,,,,0,0,0,0,,,,,8,0,32,0,624.7228604580014,None,d,0.4088074629980838,624.8229416700051,None,624.238344010002,624.6395669180056,625.2559103760068,625.7562135330008,625.2559103760068,None,53,53,0,None,None,15,001,exponential,ybgr,0.35-0.75,2021_May_20_1303,color_judgement_and_subjective_perception,2020.2.10,59.982802212220875,
2,0.35,testing,1000,1,,,,,,,,,0,0,0,0,,,,,8,1,33,2,626.3562844190019,None,f,0.679365998999856,626.4563749210065,None,625.8561715120013,626.2730804670064,627.1579727220014,627.6566721670024,627.1579727220014,None,0,30,0,None,None,15,001,exponential,ybgr,0.35-0.75,2021_May_20_1303,color_judgement_and_subjective_perception,2020.2.10,59.982802212220875,
0,0.35,testing,1000,1,,,,,,,,,0,0,0,0,,,,,8,2,34,0,628.2566668540021,None,f,0.7150478109979304,628.3566759500027,None,627.7563713230047,628.1733603620014,629.0900347360002,629.5743413410019,629.0900347360002,None,50,50,0,None,None,15,001,exponential,ybgr,0.35-0.75,2021_May_20_1303,color_judgement_and_subjective_perception,2020.2.10,59.982802212220875,
2,0.35,testing,1000,1,,,,,,,,,0,0,0,0,,,,,8,3,35,2,630.1745762100036,None,j,0.5653321080026217,630.2744353260059,None,629.6743854830056,630.0912397080028,630.8594366090038,631.3081148050042,630.8594366090038,None,0,27,0,None,None,15,001,exponential,ybgr,0.35-0.75,2021_May_20_1303,color_judgement_and_subjective_perception,2020.2.10,59.982802212220875,
1,0.35,testing,1000,1,,,,,,,,,0,0,0,0,,,,,9,0,36,1,631.8915905180038,None,j,0.5840155229961965,631.9916283630009,None,631.4032583560038,631.8082286680001,632.6073915290035,632.9913457960065,632.6073915290035,None,0,0,16,None,None,15,001,exponential,ybgr,0.35-0.75,2021_May_20_1303,color_judgement_and_subjective_perception,2020.2.10,59.982802212220875,
3,0.35,testing,1000,1,,,,,,,,,0,0,0,0,,,,,9,1,37,3,633.5916310500033,None,f,0.43622463700012304,633.6915011790043,None,633.0913586970055,633.5083392250017,634.1583016210061,634.6427693550067,634.1583016210061,None,21,7,0,None,None,15,001,exponential,ybgr,0.35-0.75,2021_May_20_1303,color_judgement_and_subjective_perception,2020.2.10,59.982802212220875,
0,0.35,testing,1000,1,,,,,,,,,0,0,0,0,,,,,9,2,38,0,635.242649384003,None,j,0.7129305230046157,635.342728470001,None,634.7425790820052,635.1592223400003,636.0760396400001,636.5762504850063,636.0760396400001,None,47,47,0,None,None,15,001,exponential,ybgr,0.35-0.75,2021_May_20_1303,color_judgement_and_subjective_perception,2020.2.10,59.982802212220875,
0,0.35,testing,1000,1,,,,,,,,,0,0,0,0,,,,,9,3,39,0,637.1764392820041,None,f,0.7472789289968205,637.2764376210034,None,636.6760690299998,637.0929830290042,638.0431008280066,638.543187645002,638.0431008280066,None,47,47,0,None,None,15,001,exponential,ybgr,0.35-0.75,2021_May_20_1303,color_judgement_and_subjective_perception,2020.2.10,59.982802212220875,
0,0.35,testing,1000,1,,,,,,,,,0,0,0,0,,,,,10,0,40,0,639.1433394920023,None,j,0.8444132820004597,639.2433120220012,None,638.6430389310044,639.0599258390066,640.1108274780054,640.6109913210021,640.1108274780054,None,49,49,0,None,None,15,001,exponential,ybgr,0.35-0.75,2021_May_20_1303,color_judgement_and_subjective_perception,2020.2.10,59.982802212220875,
2,0.35,testing,1000,1,,,,,,,,,0,0,0,0,,,,,10,1,41,2,641.2110468830069,None,k,0.7366866879965528,641.3110103640065,None,640.7106781750044,641.1277759010045,642.0778545089997,642.577970159,642.0778545089997,None,0,28,0,None,None,15,001,exponential,ybgr,0.35-0.75,2021_May_20_1303,color_judgement_and_subjective_perception,2020.2.10,59.982802212220875,
3,0.35,testing,1000,1,,,,,,,,,0,0,0,0,,,,,10,2,42,3,643.1779972050062,None,None,-1,643.2781320200011,None,642.6777914930062,643.0947732370041,644.1783835570022,644.6626069890044,644.1783835570022,None,25,8,0,None,None,15,001,exponential,ybgr,0.35-0.75,2021_May_20_1303,color_judgement_and_subjective_perception,2020.2.10,59.982802212220875,
1,0.35,testing,1000,1,,,,,,,,,0,0,0,0,,,,,10,3,43,1,645.2626492770069,None,j,0.6373704950019601,645.3623625120017,None,644.762337979002,645.1791992600047,646.0308844070023,646.5294002709998,646.0308844070023,None,0,0,20,None,None,15,001,exponential,ybgr,0.35-0.75,2021_May_20_1303,color_judgement_and_subjective_perception,2020.2.10,59.982802212220875,
0,0.35,testing,1000,1,,,,,,,,,0,0,0,0,,,,,11,0,44,0,647.1296047730066,None,d,0.834044659997744,647.2295980710041,None,646.6291981460017,647.0463558550036,648.0976134420052,648.5963394470018,648.0976134420052,None,54,54,0,None,None,15,001,exponential,ybgr,0.35-0.75,2021_May_20_1303,color_judgement_and_subjective_perception,2020.2.10,59.982802212220875,
1,0.35,testing,1000,1,,,,,,,,,0,0,0,0,,,,,11,1,45,1,649.1964762120042,None,None,-1,649.296505778002,None,648.6959410380005,649.1131552990046,650.1810608990054,650.6807737850031,650.1810608990054,None,0,0,21,None,None,15,001,exponential,ybgr,0.35-0.75,2021_May_20_1303,color_judgement_and_subjective_perception,2020.2.10,59.982802212220875,
3,0.35,testing,1000,1,,,,,,,,,0,0,0,0,,,,,11,2,46,3,651.2808790490017,None,k,0.2907989779996569,651.3809055920065,None,650.7805567090036,651.1977167310033,651.6988094690023,652.197918650003,651.6988094690023,None,28,9,0,None,None,15,001,exponential,ybgr,0.35-0.75,2021_May_20_1303,color_judgement_and_subjective_perception,2020.2.10,59.982802212220875,
0,0.35,testing,1000,1,,,,,,,,,0,0,0,0,,,,,11,3,47,0,652.7980027420053,None,d,0.42964405700331554,652.8980478670055,None,652.297646720006,652.7146737830044,653.3476565080055,653.8480542130055,653.3476565080055,None,54,54,0,None,None,15,001,exponential,ybgr,0.35-0.75,2021_May_20_1303,color_judgement_and_subjective_perception,2020.2.10,59.982802212220875,
2,0.35,testing,1000,1,,,,,,,,,0,0,0,0,,,,,12,0,48,2,654.4481320830018,None,k,0.30734893799672136,654.5323565860017,None,653.9476942590045,654.3647519110018,654.8673430890049,655.3657565150061,654.8673430890049,None,0,30,0,None,None,15,001,exponential,ybgr,0.35-0.75,2021_May_20_1303,color_judgement_and_subjective_perception,2020.2.10,59.982802212220875,
3,0.35,testing,1000,1,,,,,,,,,0,0,0,0,,,,,12,1,49,3,655.9657857710044,None,k,0.4379475009991438,656.0657412979999,None,655.4654716930017,655.8824174630063,656.5340767120069,657.0326758980009,656.5340767120069,None,24,8,0,None,None,15,001,exponential,ybgr,0.35-0.75,2021_May_20_1303,color_judgement_and_subjective_perception,2020.2.10,59.982802212220875,
1,0.35,testing,1000,1,,,,,,,,,0,0,0,0,,,,,12,2,50,1,657.6328363010034,None,k,0.6029304839976248,657.732785113003,None,657.1326430070039,657.5495377900006,658.3674388190047,658.8662283390004,658.3674388190047,None,0,0,19,None,None,15,001,exponential,ybgr,0.35-0.75,2021_May_20_1303,color_judgement_and_subjective_perception,2020.2.10,59.982802212220875,
2,0.35,testing,1000,1,,,,,,,,,0,0,0,0,,,,,12,3,51,2,659.4664501370062,None,j,0.6250717849979992,659.5506232309999,None,658.9660641200026,659.3829200239998,660.202126946002,660.7005964180062,660.202126946002,None,0,28,0,None,None,15,001,exponential,ybgr,0.35-0.75,2021_May_20_1303,color_judgement_and_subjective_perception,2020.2.10,59.982802212220875,
1,0.35,testing,1000,1,,,,,,,,,0,0,0,0,,,,,13,0,52,1,661.3005544570042,None,j,0.6948096660053125,661.4007660380012,None,660.8004475780035,661.2172880240032,662.1189615510011,662.6178519189998,662.1189615510011,None,0,0,18,None,None,15,001,exponential,ybgr,0.35-0.75,2021_May_20_1303,color_judgement_and_subjective_perception,2020.2.10,59.982802212220875,
0,0.35,testing,1000,1,,,,,,,,,0,0,0,0,,,,,13,1,53,0,663.2177756070014,None,f,0.7458960360017954,663.3178481780051,None,662.717412294005,663.1343263270028,664.0843930450064,664.5688655129998,664.0843930450064,None,47,47,0,None,None,15,001,exponential,ybgr,0.35-0.75,2021_May_20_1303,color_judgement_and_subjective_perception,2020.2.10,59.982802212220875,
1,0.35,testing,1000,1,,,,,,,,,0,0,0,0,,,,,13,2,54,1,665.1687997550034,None,k,0.5388017679943005,665.2689037330056,None,664.6687626390049,665.0856256870029,665.8354086930049,666.3356024410023,665.8354086930049,None,0,0,19,None,None,15,001,exponential,ybgr,0.35-0.75,2021_May_20_1303,color_judgement_and_subjective_perception,2020.2.10,59.982802212220875,
0,0.35,testing,1000,1,,,,,,,,,0,0,0,0,,,,,13,3,55,0,666.9360423660037,None,d,0.7158075010011089,667.0358916300029,None,666.4354381150042,666.8524779250001,667.7710754220025,668.2693497159999,667.7710754220025,None,48,48,0,None,None,15,001,exponential,ybgr,0.35-0.75,2021_May_20_1303,color_judgement_and_subjective_perception,2020.2.10,59.982802212220875,
2,0.35,testing,1000,1,,,,,,,,,0,0,0,0,,,,,14,0,56,2,668.869454714004,None,d,0.7103136310033733,668.9693913570009,None,668.3691247620009,668.7860695410054,669.7054316550057,670.2036890990057,669.7054316550057,None,0,26,0,None,None,15,001,exponential,ybgr,0.35-0.75,2021_May_20_1303,color_judgement_and_subjective_perception,2020.2.10,59.982802212220875,
0,0.35,testing,1000,1,,,,,,,,,0,0,0,0,,,,,14,1,57,0,670.8038396850025,None,f,0.5679969409975456,670.9037192420001,None,670.3035130700009,670.7204711500017,671.503790089002,672.0040660010054,671.503790089002,None,47,47,0,None,None,15,001,exponential,ybgr,0.35-0.75,2021_May_20_1303,color_judgement_and_subjective_perception,2020.2.10,59.982802212220875,
0,0.35,testing,1000,1,,,,,,,,,0,0,0,0,,,,,14,2,58,0,672.6042437050055,None,j,0.41544531199906487,672.704233979006,None,672.1038198840033,672.5208101810058,673.1373503000068,673.6376293540015,673.1373503000068,None,47,47,0,None,None,15,001,exponential,ybgr,0.35-0.75,2021_May_20_1303,color_judgement_and_subjective_perception,2020.2.10,59.982802212220875,
1,0.35,testing,1000,1,,,,,,,,,0,0,0,0,,,,,14,3,59,1,674.2378015260038,None,None,-1,674.337732869004,None,673.7374601740012,674.1544966040019,675.2223506690061,675.7219601300021,675.2223506690061,None,0,0,23,None,None,15,001,exponential,ybgr,0.35-0.75,2021_May_20_1303,color_judgement_and_subjective_perception,2020.2.10,59.982802212220875,
0,0.35,testing,1000,1,,,,,,,,,0,0,0,0,,,,,15,0,60,0,676.3222139860009,None,None,-1,676.422251861004,None,675.8219493950019,676.2388249950018,677.3222959190025,677.8225636230054,677.3222959190025,None,50,50,0,None,None,15,001,exponential,ybgr,0.35-0.75,2021_May_20_1303,color_judgement_and_subjective_perception,2020.2.10,59.982802212220875,
3,0.35,testing,1000,1,,,,,,,,,0,0,0,0,,,,,15,1,61,3,678.4226119430023,None,None,-1,678.5225918020005,None,677.9223971910033,678.3391678650005,679.4225054200069,679.9069430760064,679.4225054200069,None,25,8,0,None,None,15,001,exponential,ybgr,0.35-0.75,2021_May_20_1303,color_judgement_and_subjective_perception,2020.2.10,59.982802212220875,
