color_idx_ind,target_acc,mode,response_deadline,block_number,trials_training.thisRepN,trials_training.thisTrialN,trials_training.thisN,trials_training.thisIndex,trials_training_deadline.thisRepN,trials_training_deadline.thisTrialN,trials_training_deadline.thisN,trials_training_deadline.thisIndex,blocks.thisRepN,blocks.thisTrialN,blocks.thisN,blocks.thisIndex,trials_staircase.thisRepN,trials_staircase.thisTrialN,trials_staircase.thisN,trials_staircase.thisIndex,trials.thisRepN,trials.thisTrialN,trials.thisN,trials.thisIndex,stimulus_ind.started,stimulus_ind.stopped,key_resp_ind.keys,key_resp_ind.rt,key_resp_ind.started,key_resp_ind.stopped,fixation_cross_1_ind.started,fixation_cross_1_ind.stopped,text.started,text.stopped,dummy_text.started,dummy_text.stopped,stim_ind_color_rgb_r,stim_ind_color_rgb_g,stim_ind_color_rgb_b,text_break_block.started,text_break_block.stopped,participant,session,accuracy_weighting,color_mapping,block_difficulties,date,expName,psychopyVersion,frameRate,
0,0.9,training,1000000000000,,0,0,0,0,,,,,,,,,,,,,,,,,1389.4555191780019,None,d,1.7264507290019537,1389.5554394610008,None,1388.9590654019994,1389.3720249129983,1391.3072269490003,1391.8056713869955,1391.3072269490003,None,,,,,,16,001,exponential,ybgr,0.35-0.75,2021_May_20_1429,color_judgement_and_subjective_perception,2020.2.10,60.03605104778243,
3,0.9,training,1000000000000,,0,1,1,1,,,,,,,,,,,,,,,,,1392.4060989079953,None,k,0.8960169839992886,1392.5058766789953,None,1391.9057292959988,1392.3223892399983,1393.423683766996,1393.9233157009949,1393.423683766996,None,,,,,,16,001,exponential,ybgr,0.35-0.75,2021_May_20_1429,color_judgement_and_subjective_perception,2020.2.10,60.03605104778243,
1,0.9,training,1000000000000,,0,2,2,2,,,,,,,,,,,,,,,,,1394.5233554259976,None,f,1.0182671639995533,1394.6236135689978,None,1394.0237003079965,1394.4402804650017,1395.6738217039965,1396.1740984419957,1395.6738217039965,None,,,,,,16,001,exponential,ybgr,0.35-0.75,2021_May_20_1429,color_judgement_and_subjective_perception,2020.2.10,60.03605104778243,
2,0.9,training,1000000000000,,0,3,3,3,,,,,,,,,,,,,,,,,1396.773848881996,None,j,0.7835848339964286,1396.8742240169959,None,1396.2738891469999,1396.690484494,1397.6907105770006,1398.1751977469976,1397.6907105770006,None,,,,,,16,001,exponential,ybgr,0.35-0.75,2021_May_20_1429,color_judgement_and_subjective_perception,2020.2.10,60.03605104778243,
1,0.9,training,1000000000000,,0,4,4,4,,,,,,,,,,,,,,,,,1398.7751303600016,None,f,0.9028831870018621,1398.8750364669977,None,1398.2749503570012,1398.6916770769967,1399.8085291349998,1400.308910738997,1399.8085291349998,None,,,,,,16,001,exponential,ybgr,0.35-0.75,2021_May_20_1429,color_judgement_and_subjective_perception,2020.2.10,60.03605104778243,
2,0.9,training,1000000000000,,0,5,5,5,,,,,,,,,,,,,,,,,1400.908799222001,None,j,1.1931088709970936,1401.0087925209955,None,1400.4085375369978,1400.8253969200014,1402.2255460609958,1402.7245710979987,1402.2255460609958,None,,,,,,16,001,exponential,ybgr,0.35-0.75,2021_May_20_1429,color_judgement_and_subjective_perception,2020.2.10,60.03605104778243,
3,0.9,training,1000000000000,,0,6,6,6,,,,,,,,,,,,,,,,,1403.3100122370015,None,k,0.9436573529965244,1403.410191777999,None,1402.8099083759953,1403.2266394239996,1404.3767561810018,1404.8769287460018,1404.3767561810018,None,,,,,,16,001,exponential,ybgr,0.35-0.75,2021_May_20_1429,color_judgement_and_subjective_perception,2020.2.10,60.03605104778243,
2,0.9,training,1000000000000,,0,7,7,7,,,,,,,,,,,,,,,,,1405.4771281499998,None,j,0.8410895710039767,1405.5768345659963,None,1404.9768041770003,1405.3936101200015,1406.443620248996,1406.9438054720013,1406.443620248996,None,,,,,,16,001,exponential,ybgr,0.35-0.75,2021_May_20_1429,color_judgement_and_subjective_perception,2020.2.10,60.03605104778243,
0,0.9,training,1000000000000,,0,8,8,8,,,,,,,,,,,,,,,,,1407.544007544995,None,d,0.8296611080004368,1407.6440791679997,None,1407.0438101679974,1407.4608187900012,1408.4948791069983,1408.9949893640005,1408.4948791069983,None,,,,,,16,001,exponential,ybgr,0.35-0.75,2021_May_20_1429,color_judgement_and_subjective_perception,2020.2.10,60.03605104778243,
3,0.9,training,1000000000000,,0,9,9,9,,,,,,,,,,,,,,,,,1409.5950018479998,None,k,0.7627160660049412,1409.6951491319996,None,1409.0949601059983,1409.5118866129997,1410.4784681079982,1410.9787714609993,1410.4784681079982,None,,,,,,16,001,exponential,ybgr,0.35-0.75,2021_May_20_1429,color_judgement_and_subjective_perception,2020.2.10,60.03605104778243,
1,0.9,training,1000000000000,,0,10,10,10,,,,,,,,,,,,,,,,,1411.5787020479984,None,f,1.1711448810019647,1411.678710631997,None,1411.0786292310004,1411.4952850670015,1412.879720828998,1413.3799058619989,1412.879720828998,None,,,,,,16,001,exponential,ybgr,0.35-0.75,2021_May_20_1429,color_judgement_and_subjective_perception,2020.2.10,60.03605104778243,
2,0.9,training,1000000000000,,0,11,11,11,,,,,,,,,,,,,,,,,1413.9797704109951,None,j,0.682023121000384,1414.0797903939965,None,1413.4796969999952,1413.8966526199947,1414.7799072759954,1415.2802274009955,1414.7799072759954,None,,,,,,16,001,exponential,ybgr,0.35-0.75,2021_May_20_1429,color_judgement_and_subjective_perception,2020.2.10,60.03605104778243,
3,0.9,training,1000000000000,,0,12,12,12,,,,,,,,,,,,,,,,,1415.8801523090006,None,k,0.6616341550034122,1415.9802544019985,None,1415.3800508150016,1415.7968822350012,1416.6636156079985,1417.163663512998,1416.6636156079985,None,,,,,,16,001,exponential,ybgr,0.35-0.75,2021_May_20_1429,color_judgement_and_subjective_perception,2020.2.10,60.03605104778243,
2,0.9,training,1000000000000,,0,13,13,13,,,,,,,,,,,,,,,,,1417.748592347998,None,j,0.7138022379949689,1417.8480984459966,None,1417.2636586820008,1417.6802510019988,1418.581404231998,1419.0814080929995,1418.581404231998,None,,,,,,16,001,exponential,ybgr,0.35-0.75,2021_May_20_1429,color_judgement_and_subjective_perception,2020.2.10,60.03605104778243,
3,0.9,training,1000000000000,,0,14,14,14,,,,,,,,,,,,,,,,,1419.6815084659975,None,k,0.868248915001459,1419.7816177060013,None,1419.181578591997,1419.598311196998,1420.6817886159988,1421.1817532459972,1420.6817886159988,None,,,,,,16,001,exponential,ybgr,0.35-0.75,2021_May_20_1429,color_judgement_and_subjective_perception,2020.2.10,60.03605104778243,
1,0.9,training,1000000000000,,0,15,15,15,,,,,,,,,,,,,,,,,1421.781842999997,None,f,0.8318342620041221,1421.8820005029993,None,1421.2818106769992,1421.6984401480004,1422.7306924399963,1423.216320155996,1422.7306924399963,None,,,,,,16,001,exponential,ybgr,0.35-0.75,2021_May_20_1429,color_judgement_and_subjective_perception,2020.2.10,60.03605104778243,
3,0.9,training,1000000000000,,0,16,16,16,,,,,,,,,,,,,,,,,1423.8163865249953,None,k,0.7174075420043664,1423.91637128,None,1423.316286882,1423.733022788001,1424.6663269749988,1425.1666782399989,1424.6663269749988,None,,,,,,16,001,exponential,ybgr,0.35-0.75,2021_May_20_1429,color_judgement_and_subjective_perception,2020.2.10,60.03605104778243,
0,0.9,training,1000000000000,,0,17,17,17,,,,,,,,,,,,,,,,,1425.766724780995,None,d,0.8472138799988898,1425.8666586239997,None,1425.2666126479962,1425.6834178559948,1426.7333173590014,1427.2335649289962,1426.7333173590014,None,,,,,,16,001,exponential,ybgr,0.35-0.75,2021_May_20_1429,color_judgement_and_subjective_perception,2020.2.10,60.03605104778243,
2,0.9,training,1000000000000,,0,18,18,18,,,,,,,,,,,,,,,,,1427.8177636769979,None,j,0.6839484999945853,1427.9178637119985,None,1427.3335320849947,1427.741796702001,1428.6344369639992,1429.134691250998,1428.6344369639992,None,,,,,,16,001,exponential,ybgr,0.35-0.75,2021_May_20_1429,color_judgement_and_subjective_perception,2020.2.10,60.03605104778243,
1,0.9,training,1000000000000,,0,19,19,19,,,,,,,,,,,,,,,,,1429.7348265580003,None,f,0.8230365839990554,1429.834801814999,None,1429.2345499680014,1429.6513426759993,1430.6848210969983,1431.1850245109963,1430.6848210969983,None,,,,,,16,001,exponential,ybgr,0.35-0.75,2021_May_20_1429,color_judgement_and_subjective_perception,2020.2.10,60.03605104778243,
0,0.9,training,1000000000000,,0,20,20,20,,,,,,,,,,,,,,,,,1431.7850100379947,None,d,1.6447835059952922,1431.8850320950005,None,1431.2849966899958,1431.701666162,1433.5526319369965,1434.052961772999,1433.5526319369965,None,,,,,,16,001,exponential,ybgr,0.35-0.75,2021_May_20_1429,color_judgement_and_subjective_perception,2020.2.10,60.03605104778243,
2,0.9,training,1000000000000,,0,21,21,21,,,,,,,,,,,,,,,,,1434.6530759119996,None,j,0.816769225995813,1434.7530826229995,None,1434.1528583079998,1434.5695973709953,1435.586379663997,1436.0864126029992,1435.586379663997,None,,,,,,16,001,exponential,ybgr,0.35-0.75,2021_May_20_1429,color_judgement_and_subjective_perception,2020.2.10,60.03605104778243,
0,0.9,training,1000000000000,,0,22,22,22,,,,,,,,,,,,,,,,,1436.6865341119992,None,d,1.1273040559972287,1436.7865680579998,None,1436.1864759819946,1436.6032165200013,1437.9377749479972,1438.4375532150007,1437.9377749479972,None,,,,,,16,001,exponential,ybgr,0.35-0.75,2021_May_20_1429,color_judgement_and_subjective_perception,2020.2.10,60.03605104778243,
1,0.9,training,1000000000000,,0,23,23,23,,,,,,,,,,,,,,,,,1439.0378086119963,None,f,0.8400987540007918,1439.1378228589965,None,1438.5377330819974,1438.954420424001,1440.0046088390009,1440.5048750269998,1440.0046088390009,None,,,,,,16,001,exponential,ybgr,0.35-0.75,2021_May_20_1429,color_judgement_and_subjective_perception,2020.2.10,60.03605104778243,
0,0.9,training,1000000000000,,0,24,24,24,,,,,,,,,,,,,,,,,1441.1048850419975,None,d,1.5330105890025152,1441.2047780779976,None,1440.6047681169948,1441.0214882799992,1442.7586556759998,1443.2559941579966,1442.7586556759998,None,,,,,,16,001,exponential,ybgr,0.35-0.75,2021_May_20_1429,color_judgement_and_subjective_perception,2020.2.10,60.03605104778243,
1,0.9,training,1000000000000,,0,25,25,25,,,,,,,,,,,,,,,,,1443.8559233080014,None,f,0.9337032580006053,1443.9560359269963,None,1443.3558489689967,1443.7727452239997,1444.9228010129955,1445.4229527299976,1444.9228010129955,None,,,,,,16,001,exponential,ybgr,0.35-0.75,2021_May_20_1429,color_judgement_and_subjective_perception,2020.2.10,60.03605104778243,
0,0.9,training,1000000000000,,0,26,26,26,,,,,,,,,,,,,,,,,1446.0229617379955,None,d,0.6468846459974884,1446.1229727249956,None,1445.5229222449998,1445.9396645399975,1446.789750664997,1447.2897078879978,1446.789750664997,None,,,,,,16,001,exponential,ybgr,0.35-0.75,2021_May_20_1429,color_judgement_and_subjective_perception,2020.2.10,60.03605104778243,
2,0.9,training,1000000000000,,0,27,27,27,,,,,,,,,,,,,,,,,1447.8740919810007,None,j,0.7157556660022237,1447.9741024999967,None,1447.3898375380013,1447.790847129996,1448.7073801820006,1449.2076920530017,1448.7073801820006,None,,,,,,16,001,exponential,ybgr,0.35-0.75,2021_May_20_1429,color_judgement_and_subjective_perception,2020.2.10,60.03605104778243,
3,0.9,training,1000000000000,,0,28,28,28,,,,,,,,,,,,,,,,,1449.807762894001,None,k,0.8300731130002532,1449.9077956399997,None,1449.3076358780017,1449.724478666998,1450.7578668389979,1451.2580399169965,1450.7578668389979,None,,,,,,16,001,exponential,ybgr,0.35-0.75,2021_May_20_1429,color_judgement_and_subjective_perception,2020.2.10,60.03605104778243,
1,0.9,training,1000000000000,,0,29,29,29,,,,,,,,,,,,,,,,,1451.8580292330007,None,f,1.075861632998567,1451.9580121929976,None,1451.3579231139956,1451.7747097079991,1453.058944149001,1453.5590347370016,1453.058944149001,None,,,,,,16,001,exponential,ybgr,0.35-0.75,2021_May_20_1429,color_judgement_and_subjective_perception,2020.2.10,60.03605104778243,
0,0.9,training,1000000000000,,0,30,30,30,,,,,,,,,,,,,,,,,1454.159202212999,None,d,1.182690059999004,1454.2591799699949,None,1453.6590384619994,1454.0759641440018,1455.4593744869999,1455.9595484759993,1455.4593744869999,None,,,,,,16,001,exponential,ybgr,0.35-0.75,2021_May_20_1429,color_judgement_and_subjective_perception,2020.2.10,60.03605104778243,
3,0.9,training,1000000000000,,0,31,31,31,,,,,,,,,,,,,,,,,1456.5596729669996,None,k,0.6463464030020987,1456.6594256050012,None,1456.0591782560005,1456.4763059049947,1457.326121827995,1457.810671991996,1457.326121827995,None,,,,,,16,001,exponential,ybgr,0.35-0.75,2021_May_20_1429,color_judgement_and_subjective_perception,2020.2.10,60.03605104778243,
3,0.9,training,1000,,,,,,0,0,0,0,,,,,,,,,,,,,1466.1795195789964,None,k,0.5464158830000088,1466.2794767379964,None,1465.681799083999,1466.0960706810001,1466.846042666999,1467.3460326139975,1466.846042666999,None,,,,,,16,001,exponential,ybgr,0.35-0.75,2021_May_20_1429,color_judgement_and_subjective_perception,2020.2.10,60.03605104778243,
1,0.9,training,1000,,,,,,0,1,1,1,,,,,,,,,,,,,1467.930461045995,None,f,0.5475781459972495,1468.0302966949967,None,1467.446307745995,1467.8470762399957,1468.597178994998,1469.0972062879955,1468.597178994998,None,,,,,,16,001,exponential,ybgr,0.35-0.75,2021_May_20_1429,color_judgement_and_subjective_perception,2020.2.10,60.03605104778243,
0,0.9,training,1000,,,,,,0,2,2,2,,,,,,,,,,,,,1469.6973051059977,None,d,0.49245349299599184,1469.7974189279994,None,1469.1973139420006,1469.6139678830004,1470.3141734460005,1470.8142289289972,1470.3141734460005,None,,,,,,16,001,exponential,ybgr,0.35-0.75,2021_May_20_1429,color_judgement_and_subjective_perception,2020.2.10,60.03605104778243,
3,0.9,training,1000,,,,,,0,3,3,3,,,,,,,,,,,,,1471.4142750839965,None,k,0.6076101630023913,1471.5142764979973,None,1470.9141928219979,1471.330937353996,1472.1475325499996,1472.6478368030002,1472.1475325499996,None,,,,,,16,001,exponential,ybgr,0.35-0.75,2021_May_20_1429,color_judgement_and_subjective_perception,2020.2.10,60.03605104778243,
0,0.9,training,1000,,,,,,0,4,4,4,,,,,,,,,,,,,1473.2319606300007,None,d,0.7417631520002033,1473.3321488869988,None,1472.7464512980005,1473.1488800590014,1474.0986773219993,1474.599104077999,1474.0986773219993,None,,,,,,16,001,exponential,ybgr,0.35-0.75,2021_May_20_1429,color_judgement_and_subjective_perception,2020.2.10,60.03605104778243,
3,0.9,training,1000,,,,,,0,5,5,5,,,,,,,,,,,,,1475.1991129439994,None,k,0.5347454079965246,1475.2991208259991,None,1474.6989091409996,1475.1144286999988,1475.8528077539959,1476.3325536470002,1475.8528077539959,None,,,,,,16,001,exponential,ybgr,0.35-0.75,2021_May_20_1429,color_judgement_and_subjective_perception,2020.2.10,60.03605104778243,
1,0.9,training,1000,,,,,,0,6,6,6,,,,,,,,,,,,,1476.9325999159992,None,f,0.6411680499950307,1477.0326934030018,None,1476.4323963959978,1476.8491526360012,1477.6993611770013,1478.1837551520002,1477.6993611770013,None,,,,,,16,001,exponential,ybgr,0.35-0.75,2021_May_20_1429,color_judgement_and_subjective_perception,2020.2.10,60.03605104778243,
3,0.9,training,1000,,,,,,0,7,7,7,,,,,,,,,,,,,1478.7837179189955,None,k,0.5662032260006526,1478.8836380139983,None,1478.2837112349953,1478.700343051998,1479.4670360849996,1479.9672754409985,1479.4670360849996,None,,,,,,16,001,exponential,ybgr,0.35-0.75,2021_May_20_1429,color_judgement_and_subjective_perception,2020.2.10,60.03605104778243,
0,0.9,training,1000,,,,,,0,8,8,8,,,,,,,,,,,,,1480.5673953689984,None,d,0.36638716800371185,1480.667480432996,None,1480.0672363529957,1480.4841554039958,1481.0506680399994,1481.5508457260003,1481.0506680399994,None,,,,,,16,001,exponential,ybgr,0.35-0.75,2021_May_20_1429,color_judgement_and_subjective_perception,2020.2.10,60.03605104778243,
2,0.9,training,1000,,,,,,0,9,9,9,,,,,,,,,,,,,1482.1510090219963,None,j,0.534818849999283,1482.2509842099971,None,1481.6509995090018,1482.0676972910005,1482.8184711779977,1483.3187030339977,1482.8184711779977,None,,,,,,16,001,exponential,ybgr,0.35-0.75,2021_May_20_1429,color_judgement_and_subjective_perception,2020.2.10,60.03605104778243,
3,0.9,training,1000,,,,,,0,10,10,10,,,,,,,,,,,,,1483.9185911109962,None,k,0.5352925659972243,1484.0185749019947,None,1483.4185639499992,1483.8352389930005,1484.585314308999,1485.0853800149998,1484.585314308999,None,,,,,,16,001,exponential,ybgr,0.35-0.75,2021_May_20_1429,color_judgement_and_subjective_perception,2020.2.10,60.03605104778243,
2,0.9,training,1000,,,,,,0,11,11,11,,,,,,,,,,,,,1485.6856756429988,None,None,-1,1485.7856571039956,None,1485.1855126459996,1485.6023933539982,1486.7023414729993,1487.2025261160015,1486.7023414729993,None,,,,,,16,001,exponential,ybgr,0.35-0.75,2021_May_20_1429,color_judgement_and_subjective_perception,2020.2.10,60.03605104778243,
1,0.9,training,1000,,,,,,0,12,12,12,,,,,,,,,,,,,1487.7867660010015,None,None,-1,1487.8866925819966,None,1487.3024963040007,1487.7192464190011,1488.8034402859994,1489.3037324929974,1488.8034402859994,None,,,,,,16,001,exponential,ybgr,0.35-0.75,2021_May_20_1429,color_judgement_and_subjective_perception,2020.2.10,60.03605104778243,
2,0.9,training,1000,,,,,,0,13,13,13,,,,,,,,,,,,,1489.9037314499947,None,j,0.7419996039971011,1490.0038950039961,None,1489.4035636959961,1489.8203660360014,1490.7704882549951,1491.2704472240002,1490.7704882549951,None,,,,,,16,001,exponential,ybgr,0.35-0.75,2021_May_20_1429,color_judgement_and_subjective_perception,2020.2.10,60.03605104778243,
0,0.9,training,1000,,,,,,0,14,14,14,,,,,,,,,,,,,1491.8706548369955,None,d,0.4711702879940276,1491.9707134290002,None,1491.3705883959992,1491.7872796609954,1492.4707255889953,1492.9550246639992,1492.4707255889953,None,,,,,,16,001,exponential,ybgr,0.35-0.75,2021_May_20_1429,color_judgement_and_subjective_perception,2020.2.10,60.03605104778243,
1,0.9,training,1000,,,,,,0,15,15,15,,,,,,,,,,,,,1493.5550186519977,None,f,0.5547823570013861,1493.6550379990003,None,1493.0548968410003,1493.4715853019952,1494.2383097139973,1494.738743279995,1494.2383097139973,None,,,,,,16,001,exponential,ybgr,0.35-0.75,2021_May_20_1429,color_judgement_and_subjective_perception,2020.2.10,60.03605104778243,
3,0.9,training,1000,,,,,,0,16,16,16,,,,,,,,,,,,,1495.338921128001,None,k,0.45900629999960074,1495.4388258420004,None,1494.8385633750004,1495.2554173800017,1495.9220048479983,1496.4221929170017,1495.9220048479983,None,,,,,,16,001,exponential,ybgr,0.35-0.75,2021_May_20_1429,color_judgement_and_subjective_perception,2020.2.10,60.03605104778243,
0,0.9,training,1000,,,,,,0,17,17,17,,,,,,,,,,,,,1497.0222483479956,None,d,0.6475489839940565,1497.1223380559968,None,1496.5219864859973,1496.9388535440012,1497.789851030997,1498.2898991580005,1497.789851030997,None,,,,,,16,001,exponential,ybgr,0.35-0.75,2021_May_20_1429,color_judgement_and_subjective_perception,2020.2.10,60.03605104778243,
1,0.9,training,1000,,,,,,0,18,18,18,,,,,,,,,,,,,1498.890193153995,None,f,0.5077725370065309,1498.990100719995,None,1498.390040585,1498.806631956999,1499.5233313639983,1500.0236507750014,1499.5233313639983,None,,,,,,16,001,exponential,ybgr,0.35-0.75,2021_May_20_1429,color_judgement_and_subjective_perception,2020.2.10,60.03605104778243,
2,0.9,training,1000,,,,,,0,19,19,19,,,,,,,,,,,,,1500.6238601529985,None,j,0.5102572239993606,1500.7236454369995,None,1500.123643892999,1500.540426955995,1501.2569051949977,1501.7572196399997,1501.2569051949977,None,,,,,,16,001,exponential,ybgr,0.35-0.75,2021_May_20_1429,color_judgement_and_subjective_perception,2020.2.10,60.03605104778243,
0,0.9,training,1000,,,,,,0,20,20,20,,,,,,,,,,,,,1502.3573461580017,None,d,0.3606238700012909,1502.4571727619987,None,1501.8571834030008,1502.2739621049986,1502.8414195689984,1503.3415076819947,1502.8414195689984,None,,,,,,16,001,exponential,ybgr,0.35-0.75,2021_May_20_1429,color_judgement_and_subjective_perception,2020.2.10,60.03605104778243,
1,0.9,training,1000,,,,,,0,21,21,21,,,,,,,,,,,,,1503.941588773996,None,f,0.5522549379966222,1504.0416026730018,None,1503.4416566489963,1503.858213581996,1504.6250207549965,1505.125344025997,1504.6250207549965,None,,,,,,16,001,exponential,ybgr,0.35-0.75,2021_May_20_1429,color_judgement_and_subjective_perception,2020.2.10,60.03605104778243,
0,0.9,training,1000,,,,,,0,22,22,22,,,,,,,,,,,,,1505.7252162559962,None,d,0.5923983180036885,1505.8253924249948,None,1505.2252021349996,1505.6418212040007,1506.4417865930009,1506.9421175539974,1506.4417865930009,None,,,,,,16,001,exponential,ybgr,0.35-0.75,2021_May_20_1429,color_judgement_and_subjective_perception,2020.2.10,60.03605104778243,
3,0.9,training,1000,,,,,,0,23,23,23,,,,,,,,,,,,,1507.5422597409997,None,k,0.4396056559999124,1507.6422320529964,None,1507.0420433990002,1507.458737228997,1508.1097079600004,1508.6097926410002,1508.1097079600004,None,,,,,,16,001,exponential,ybgr,0.35-0.75,2021_May_20_1429,color_judgement_and_subjective_perception,2020.2.10,60.03605104778243,
0,0.9,training,1000,,,,,,0,24,24,24,,,,,,,,,,,,,1509.2098565599954,None,d,0.47586115900048753,1509.3099607190015,None,1508.7097341959961,1509.1265965549974,1509.8098465619987,1510.3102528550007,1509.8098465619987,None,,,,,,16,001,exponential,ybgr,0.35-0.75,2021_May_20_1429,color_judgement_and_subjective_perception,2020.2.10,60.03605104778243,
1,0.9,training,1000,,,,,,0,25,25,25,,,,,,,,,,,,,1510.910140162996,None,f,0.6477303589999792,1511.0101396850005,None,1510.4101857060014,1510.827010146997,1511.6770304230013,1512.177102007001,1511.6770304230013,None,,,,,,16,001,exponential,ybgr,0.35-0.75,2021_May_20_1429,color_judgement_and_subjective_perception,2020.2.10,60.03605104778243,
0,0.9,training,1000,,,,,,0,26,26,26,,,,,,,,,,,,,1512.7683771059965,None,d,0.2684314299985999,1512.861419846995,None,1512.2770024019992,1512.693836626997,1513.1613828959962,1513.661376955999,1513.1613828959962,None,,,,,,16,001,exponential,ybgr,0.35-0.75,2021_May_20_1429,color_judgement_and_subjective_perception,2020.2.10,60.03605104778243,
2,0.9,training,1000,,,,,,0,27,27,27,,,,,,,,,,,,,1514.2614480039992,None,j,0.48025794199929805,1514.3615971830004,None,1513.7613704809992,1514.1781115519989,1514.8615016869953,1515.361743305999,1514.8615016869953,None,,,,,,16,001,exponential,ybgr,0.35-0.75,2021_May_20_1429,color_judgement_and_subjective_perception,2020.2.10,60.03605104778243,
0,0.9,training,1000,,,,,,0,28,28,28,,,,,,,,,,,,,1515.961899885995,None,d,0.3801947069950984,1516.0617209240008,None,1515.4617602259968,1515.8784730209954,1516.4617644600003,1516.961981773995,1516.4617644600003,None,,,,,,16,001,exponential,ybgr,0.35-0.75,2021_May_20_1429,color_judgement_and_subjective_perception,2020.2.10,60.03605104778243,
1,0.9,training,1000,,,,,,0,29,29,29,,,,,,,,,,,,,1517.5620888679987,None,f,0.3957648909999989,1517.6621046419968,None,1517.061753080001,1517.4788031839998,1518.0797784399983,1518.5795580709964,1518.0797784399983,None,,,,,,16,001,exponential,ybgr,0.35-0.75,2021_May_20_1429,color_judgement_and_subjective_perception,2020.2.10,60.03605104778243,
3,0.9,training,1000,,,,,,0,30,30,30,,,,,,,,,,,,,1519.179584297999,None,k,0.44200476900005015,1519.279856657995,None,1518.6797371700013,1519.096309692999,1519.746445744,1520.2465895139976,1519.746445744,None,,,,,,16,001,exponential,ybgr,0.35-0.75,2021_May_20_1429,color_judgement_and_subjective_perception,2020.2.10,60.03605104778243,
2,0.9,training,1000,,,,,,0,31,31,31,,,,,,,,,,,,,1520.8468673259995,None,d,0.5752556830047979,1520.946601732001,None,1520.3467516079982,1520.7634250100018,1521.5466693109993,1522.0468855559957,1521.5466693109993,None,,,,,,16,001,exponential,ybgr,0.35-0.75,2021_May_20_1429,color_judgement_and_subjective_perception,2020.2.10,60.03605104778243,
0,0.9,training,1000,,,,,,0,32,32,32,,,,,,,,,,,,,1522.647003348,None,d,0.870940246997634,1522.7469289799992,None,1522.1468051650008,1522.5637196379976,1523.6476671900018,1524.1479013329954,1523.6476671900018,None,,,,,,16,001,exponential,ybgr,0.35-0.75,2021_May_20_1429,color_judgement_and_subjective_perception,2020.2.10,60.03605104778243,
2,0.9,training,1000,,,,,,0,33,33,33,,,,,,,,,,,,,1524.7481834529972,None,j,0.5938187809952069,1524.848094132998,None,1524.2479363029997,1524.6647569470006,1525.464841037996,1525.964998809999,1525.464841037996,None,,,,,,16,001,exponential,ybgr,0.35-0.75,2021_May_20_1429,color_judgement_and_subjective_perception,2020.2.10,60.03605104778243,
1,0.9,training,1000,,,,,,0,34,34,34,,,,,,,,,,,,,1526.5649720319998,None,f,0.7046662579959957,1526.6651819149993,None,1526.0649935879992,1526.4816502030008,1527.3982921339993,1527.8828824739976,1527.3982921339993,None,,,,,,16,001,exponential,ybgr,0.35-0.75,2021_May_20_1429,color_judgement_and_subjective_perception,2020.2.10,60.03605104778243,
2,0.9,training,1000,,,,,,0,35,35,35,,,,,,,,,,,,,1528.4829151399972,None,j,0.675170156006061,1528.5827117969966,None,1527.9827017899952,1528.3997389479991,1529.2828320240005,1529.7830632609985,1529.2828320240005,None,,,,,,16,001,exponential,ybgr,0.35-0.75,2021_May_20_1429,color_judgement_and_subjective_perception,2020.2.10,60.03605104778243,
3,0.9,training,1000,,,,,,0,36,36,36,,,,,,,,,,,,,1530.3831819439947,None,k,0.5588046979974024,1530.4831008809997,None,1529.8830863459953,1530.299873389995,1531.066479950001,1531.5665946759982,1531.066479950001,None,,,,,,16,001,exponential,ybgr,0.35-0.75,2021_May_20_1429,color_judgement_and_subjective_perception,2020.2.10,60.03605104778243,
1,0.9,training,1000,,,,,,0,37,37,37,,,,,,,,,,,,,1532.166773568999,None,f,0.7750550779965124,1532.2668319000004,None,1531.6666132699975,1532.0832318339963,1533.067616840999,1533.5678104420003,1533.067616840999,None,,,,,,16,001,exponential,ybgr,0.35-0.75,2021_May_20_1429,color_judgement_and_subjective_perception,2020.2.10,60.03605104778243,
3,0.9,training,1000,,,,,,0,38,38,38,,,,,,,,,,,,,1534.1678546549956,None,k,0.5020992610006942,1534.2677507049957,None,1533.6676686220017,1534.0843914959987,1534.801090158995,1535.3013749349993,1534.801090158995,None,,,,,,16,001,exponential,ybgr,0.35-0.75,2021_May_20_1429,color_judgement_and_subjective_perception,2020.2.10,60.03605104778243,
0,0.9,training,1000,,,,,,0,39,39,39,,,,,,,,,,,,,1535.901405867,None,d,0.4804699239975889,1536.0014301289993,None,1535.401435945998,1535.8181371579994,1536.5013050189955,1537.0016296139947,1536.5013050189955,None,,,,,,16,001,exponential,ybgr,0.35-0.75,2021_May_20_1429,color_judgement_and_subjective_perception,2020.2.10,60.03605104778243,
1,0.9,training,1000,,,,,,0,40,40,40,,,,,,,,,,,,,1537.6015675989984,None,f,0.7082118920006906,1537.701652579999,None,1537.1016044179996,1537.5183014629947,1538.435765727998,1538.936161669997,1538.435765727998,None,,,,,,16,001,exponential,ybgr,0.35-0.75,2021_May_20_1429,color_judgement_and_subjective_perception,2020.2.10,60.03605104778243,
2,0.9,training,1000,,,,,,0,41,41,41,,,,,,,,,,,,,1539.5362021639958,None,j,0.613797951999004,1539.6360701239973,None,1539.0360583680012,1539.4528212549994,1540.269527124001,1540.7694659869958,1540.269527124001,None,,,,,,16,001,exponential,ybgr,0.35-0.75,2021_May_20_1429,color_judgement_and_subjective_perception,2020.2.10,60.03605104778243,
1,0.9,training,1000,,,,,,0,42,42,42,,,,,,,,,,,,,1541.369802053996,None,f,0.5641985080001177,1541.4696806680004,None,1540.86987201,1541.2863238770005,1542.0530257209975,1542.5533232140006,1542.0530257209975,None,,,,,,16,001,exponential,ybgr,0.35-0.75,2021_May_20_1429,color_judgement_and_subjective_perception,2020.2.10,60.03605104778243,
2,0.9,training,1000,,,,,,0,43,43,43,,,,,,,,,,,,,1543.137533010995,None,j,0.6042728549946332,1543.2375825119962,None,1542.6532148479964,1543.0542574469946,1543.870914414998,1544.3710149049948,1543.870914414998,None,,,,,,16,001,exponential,ybgr,0.35-0.75,2021_May_20_1429,color_judgement_and_subjective_perception,2020.2.10,60.03605104778243,
3,0.9,training,1000,,,,,,0,44,44,44,,,,,,,,,,,,,1544.9712159810006,None,k,0.3306726129958406,1545.0712001520005,None,1544.470995017,1544.8878531139999,1545.4211074699997,1545.9213141489963,1545.4211074699997,None,,,,,,16,001,exponential,ybgr,0.35-0.75,2021_May_20_1429,color_judgement_and_subjective_perception,2020.2.10,60.03605104778243,
2,0.9,training,1000,,,,,,0,45,45,45,,,,,,,,,,,,,1546.521402628001,None,j,0.6284441410025465,1546.6214327179987,None,1546.0212277300016,1546.437988632999,1547.2714325199995,1547.770371863,1547.2714325199995,None,,,,,,16,001,exponential,ybgr,0.35-0.75,2021_May_20_1429,color_judgement_and_subjective_perception,2020.2.10,60.03605104778243,
3,0.9,training,1000,,,,,,0,46,46,46,,,,,,,,,,,,,1548.355685716997,None,k,0.4181555719987955,1548.4557673089948,None,1547.8556428449956,1548.2725295759956,1548.9056348949962,1549.4060422779949,1548.9056348949962,None,,,,,,16,001,exponential,ybgr,0.35-0.75,2021_May_20_1429,color_judgement_and_subjective_perception,2020.2.10,60.03605104778243,
2,0.9,training,1000,,,,,,0,47,47,47,,,,,,,,,,,,,1550.0060807939954,None,j,0.6077962490016944,1550.1060852590017,None,1549.5058703429968,1549.9228180319988,1550.7394734599948,1551.2397108239966,1550.7394734599948,None,,,,,,16,001,exponential,ybgr,0.35-0.75,2021_May_20_1429,color_judgement_and_subjective_perception,2020.2.10,60.03605104778243,
3,0.9,training,1000,,,,,,0,48,48,48,,,,,,,,,,,,,1551.8397308519998,None,k,0.5900398270023288,1551.9398224629986,None,1551.339464356999,1551.7563699480015,1552.5564009519949,1553.0407156699948,1552.5564009519949,None,,,,,,16,001,exponential,ybgr,0.35-0.75,2021_May_20_1429,color_judgement_and_subjective_perception,2020.2.10,60.03605104778243,
2,0.9,training,1000,,,,,,0,49,49,49,,,,,,,,,,,,,1553.6407197329972,None,j,0.5091585439949995,1553.7406901159993,None,1553.140572626995,1553.5573428069983,1554.2739945430003,1554.7742452969978,1554.2739945430003,None,,,,,,16,001,exponential,ybgr,0.35-0.75,2021_May_20_1429,color_judgement_and_subjective_perception,2020.2.10,60.03605104778243,
0,0.9,training,1000,,,,,,0,50,50,50,,,,,,,,,,,,,1555.374334522996,None,d,0.7915411339999991,1555.4742953460009,None,1554.874277459996,1555.2910838509997,1556.2910356619977,1556.791078852999,1556.2910356619977,None,,,,,,16,001,exponential,ybgr,0.35-0.75,2021_May_20_1429,color_judgement_and_subjective_perception,2020.2.10,60.03605104778243,
0,0.9,training,1000,,,,,,0,51,51,51,,,,,,,,,,,,,1557.3912645199962,None,None,-1,1557.491358209998,None,1556.891073810999,1557.3080143779953,1558.3921211689958,1558.8923600509952,1558.3921211689958,None,,,,,,16,001,exponential,ybgr,0.35-0.75,2021_May_20_1429,color_judgement_and_subjective_perception,2020.2.10,60.03605104778243,
0,0.9,training,1000,,,,,,0,52,52,52,,,,,,,,,,,,,1559.4924871869953,None,d,0.3213089509954443,1559.5925579739996,None,1558.992232904995,1559.4092756669997,1559.9423723360014,1560.4427553809946,1559.9423723360014,None,,,,,,16,001,exponential,ybgr,0.35-0.75,2021_May_20_1429,color_judgement_and_subjective_perception,2020.2.10,60.03605104778243,
3,0.9,training,1000,,,,,,0,53,53,53,,,,,,,,,,,,,1561.042758906995,None,k,0.5152743440048653,1561.142597088001,None,1560.5426006509952,1560.9593322739966,1561.6759733159997,1562.1761502519948,1561.6759733159997,None,,,,,,16,001,exponential,ybgr,0.35-0.75,2021_May_20_1429,color_judgement_and_subjective_perception,2020.2.10,60.03605104778243,
0,0.9,training,1000,,,,,,0,54,54,54,,,,,,,,,,,,,1562.775077238999,None,d,0.42929126800299855,1562.8605763209998,None,1562.2762308879974,1562.6928717529954,1563.3105010399959,1563.8105102109985,1563.3105010399959,None,,,,,,16,001,exponential,ybgr,0.35-0.75,2021_May_20_1429,color_judgement_and_subjective_perception,2020.2.10,60.03605104778243,
0,0.9,training,1000,,,,,,0,55,55,55,,,,,,,,,,,,,1564.4107931209946,None,d,0.571259235002799,1564.5106233729966,None,1563.9105315929992,1564.3273434389994,1565.1107466419999,1565.6109749759999,1565.1107466419999,None,,,,,,16,001,exponential,ybgr,0.35-0.75,2021_May_20_1429,color_judgement_and_subjective_perception,2020.2.10,60.03605104778243,
3,0.9,training,1000,,,,,,0,56,56,56,,,,,,,,,,,,,1566.2110499019982,None,k,0.46687364199897274,1566.310914691996,None,1565.711061944996,1566.1276994559958,1566.8108252289967,1567.3111857709955,1566.8108252289967,None,,,,,,16,001,exponential,ybgr,0.35-0.75,2021_May_20_1429,color_judgement_and_subjective_perception,2020.2.10,60.03605104778243,
3,0.9,training,1000,,,,,,0,57,57,57,,,,,,,,,,,,,1567.8953924099987,None,k,0.3184335999976611,1567.9954490899981,None,1567.411269721997,1567.8120783769991,1568.3451943789987,1568.8454413129948,1568.3451943789987,None,,,,,,16,001,exponential,ybgr,0.35-0.75,2021_May_20_1429,color_judgement_and_subjective_perception,2020.2.10,60.03605104778243,
2,0.9,training,1000,,,,,,0,58,58,58,,,,,,,,,,,,,1569.4455649559968,None,j,0.584328066004673,1569.545462572998,None,1568.9453893019963,1569.3622584019977,1570.1622362449998,1570.6627261100002,1570.1622362449998,None,,,,,,16,001,exponential,ybgr,0.35-0.75,2021_May_20_1429,color_judgement_and_subjective_perception,2020.2.10,60.03605104778243,
2,0.9,training,1000,,,,,,0,59,59,59,,,,,,,,,,,,,1571.2625757099959,None,j,0.27139400899613975,1571.3625763579985,None,1570.7624473359974,1571.1791676540015,1571.6623129049985,1572.1628544869964,1571.6623129049985,None,,,,,,16,001,exponential,ybgr,0.35-0.75,2021_May_20_1429,color_judgement_and_subjective_perception,2020.2.10,60.03605104778243,
0,0.9,training,1000,,,,,,0,60,60,60,,,,,,,,,,,,,1572.7627557419983,None,d,0.6988524480038905,1572.8469951219959,None,1572.262583484,1572.6794679910017,1573.5636063290003,1574.0637892550003,1573.5636063290003,None,,,,,,16,001,exponential,ybgr,0.35-0.75,2021_May_20_1429,color_judgement_and_subjective_perception,2020.2.10,60.03605104778243,
1,0.9,training,1000,,,,,,0,61,61,61,,,,,,,,,,,,,1574.6638550290008,None,f,0.6540199860028224,1574.7638368789994,None,1574.1636754790015,1574.5804803239953,1575.447246646996,1575.9472780819997,1575.447246646996,None,,,,,,16,001,exponential,ybgr,0.35-0.75,2021_May_20_1429,color_judgement_and_subjective_perception,2020.2.10,60.03605104778243,
2,0.9,training,1000,,,,,,0,62,62,62,,,,,,,,,,,,,1576.5473281879968,None,j,0.6503063519994612,1576.6475981299955,None,1576.0474950499993,1576.464103321996,1577.330876148997,1577.8152810589963,1577.330876148997,None,,,,,,16,001,exponential,ybgr,0.35-0.75,2021_May_20_1429,color_judgement_and_subjective_perception,2020.2.10,60.03605104778243,
2,0.9,training,1000,,,,,,0,63,63,63,,,,,,,,,,,,,1578.4153975689987,None,j,0.3985469830004149,1578.515233760998,None,1577.9151477439955,1578.331880247999,1578.9318907779962,1579.4322399469966,1578.9318907779962,None,,,,,,16,001,exponential,ybgr,0.35-0.75,2021_May_20_1429,color_judgement_and_subjective_perception,2020.2.10,60.03605104778243,
1,0.9,training,1000,,,,,,0,64,64,64,,,,,,,,,,,,,1580.032295557001,None,f,0.28560714299965184,1580.1322891980017,None,1579.5320103159975,1579.9490377019974,1580.4488173060017,1580.9487651000018,1580.4488173060017,None,,,,,,16,001,exponential,ybgr,0.35-0.75,2021_May_20_1429,color_judgement_and_subjective_perception,2020.2.10,60.03605104778243,
1,0.9,training,1000,,,,,,0,65,65,65,,,,,,,,,,,,,1581.5491303820017,None,f,0.5447985729988432,1581.649059094998,None,1581.0488979410002,1581.4656741779982,1582.2157604749955,1582.7159337449993,1582.2157604749955,None,,,,,,16,001,exponential,ybgr,0.35-0.75,2021_May_20_1429,color_judgement_and_subjective_perception,2020.2.10,60.03605104778243,
3,0.9,training,1000,,,,,,0,66,66,66,,,,,,,,,,,,,1583.3002015969978,None,k,0.4737331029973575,1583.4001504900007,None,1582.8018309209947,1583.2168363050005,1583.9000873569967,1584.4003295599978,1583.9000873569967,None,,,,,,16,001,exponential,ybgr,0.35-0.75,2021_May_20_1429,color_judgement_and_subjective_perception,2020.2.10,60.03605104778243,
0,0.9,training,1000,,,,,,0,67,67,67,,,,,,,,,,,,,1585.000457328999,None,d,0.5013807080031256,1585.1004875020008,None,1584.500313602999,1584.917079619001,1585.633903586997,1586.1339405769977,1585.633903586997,None,,,,,,16,001,exponential,ybgr,0.35-0.75,2021_May_20_1429,color_judgement_and_subjective_perception,2020.2.10,60.03605104778243,
1,0.9,training,1000,,,,,,0,68,68,68,,,,,,,,,,,,,1586.7339643759988,None,f,0.5518659980007214,1586.833990867999,None,1586.2338534910014,1586.6506812139996,1587.4174073579998,1587.9016589699968,1587.4174073579998,None,,,,,,16,001,exponential,ybgr,0.35-0.75,2021_May_20_1429,color_judgement_and_subjective_perception,2020.2.10,60.03605104778243,
3,0.9,training,1000,,,,,,0,69,69,69,,,,,,,,,,,,,1588.5016755069955,None,k,0.5201311679993523,1588.6017303490007,None,1588.0042198599986,1588.418545474,1589.1517978379998,1589.6518738859959,1589.1517978379998,None,,,,,,16,001,exponential,ybgr,0.35-0.75,2021_May_20_1429,color_judgement_and_subjective_perception,2020.2.10,60.03605104778243,
1,0.9,training,1000,,,,,,0,70,70,70,,,,,,,,,,,,,1590.2520329069957,None,f,0.6017796989981434,1590.3520901820011,None,1589.751945502001,1590.1687115589957,1590.9854528840006,1591.485553601,1590.9854528840006,None,,,,,,16,001,exponential,ybgr,0.35-0.75,2021_May_20_1429,color_judgement_and_subjective_perception,2020.2.10,60.03605104778243,
3,0.9,training,1000,,,,,,0,71,71,71,,,,,,,,,,,,,1592.0856548349984,None,k,0.4161486059965682,1592.1856830649995,None,1591.585382090001,1592.0023038029976,1592.6190009860002,1593.1032610999973,1592.6190009860002,None,,,,,,16,001,exponential,ybgr,0.35-0.75,2021_May_20_1429,color_judgement_and_subjective_perception,2020.2.10,60.03605104778243,
3,0.9,training,1000,,,,,,0,72,72,72,,,,,,,,,,,,,1593.7031954560007,None,k,0.4386279770042165,1593.8032270069962,None,1593.2032412029948,1593.6201326779992,1594.2700093429958,1594.7700796149948,1594.2700093429958,None,,,,,,16,001,exponential,ybgr,0.35-0.75,2021_May_20_1429,color_judgement_and_subjective_perception,2020.2.10,60.03605104778243,
2,0.9,training,1000,,,,,,0,73,73,73,,,,,,,,,,,,,1595.3702579890014,None,j,0.6355434759971104,1595.4703533909997,None,1594.870236376999,1595.2871065029976,1596.136955873997,1596.6370991889999,1596.136955873997,None,,,,,,16,001,exponential,ybgr,0.35-0.75,2021_May_20_1429,color_judgement_and_subjective_perception,2020.2.10,60.03605104778243,
0,0.9,training,1000,,,,,,0,74,74,74,,,,,,,,,,,,,1597.2372778310018,None,d,0.6245391729971743,1597.3372871699976,None,1596.7371943289982,1597.153875252996,1597.988199223997,1598.4881090080016,1597.988199223997,None,,,,,,16,001,exponential,ybgr,0.35-0.75,2021_May_20_1429,color_judgement_and_subjective_perception,2020.2.10,60.03605104778243,
1,0.9,training,1000,,,,,,0,75,75,75,,,,,,,,,,,,,1599.0881656519996,None,f,0.6296281920003821,1599.1882451240017,None,1598.5880783620014,1599.0049214850005,1599.838412432,1600.3385701649968,1599.838412432,None,,,,,,16,001,exponential,ybgr,0.35-0.75,2021_May_20_1429,color_judgement_and_subjective_perception,2020.2.10,60.03605104778243,
0,0.9,training,1000,,,,,,0,76,76,76,,,,,,,,,,,,,1600.9386717390007,None,None,-1,1601.0386030879963,None,1600.4387133380005,1600.8553000710017,1601.9553362799998,1602.4554316059948,1601.9553362799998,None,,,,,,16,001,exponential,ybgr,0.35-0.75,2021_May_20_1429,color_judgement_and_subjective_perception,2020.2.10,60.03605104778243,
1,0.9,training,1000,,,,,,0,77,77,77,,,,,,,,,,,,,1603.0397819049977,None,f,0.4456647979968693,1603.1402626080016,None,1602.5554417640014,1602.9564360549994,1603.6062725180018,1604.1065798490017,1603.6062725180018,None,,,,,,16,001,exponential,ybgr,0.35-0.75,2021_May_20_1429,color_judgement_and_subjective_perception,2020.2.10,60.03605104778243,
0,0.9,training,1000,,,,,,0,78,78,78,,,,,,,,,,,,,1604.706676611997,None,f,0.4351373500030604,1604.8067945980001,None,1604.2065964229987,1604.6233623020016,1605.2733154689995,1605.773588046999,1605.2733154689995,None,,,,,,16,001,exponential,ybgr,0.35-0.75,2021_May_20_1429,color_judgement_and_subjective_perception,2020.2.10,60.03605104778243,
1,0.9,training,1000,,,,,,0,79,79,79,,,,,,,,,,,,,1606.3735281990012,None,f,0.5603298529968015,1606.4735845219984,None,1605.873402655001,1606.2903202689995,1607.056835960997,1607.5570984229998,1607.056835960997,None,,,,,,16,001,exponential,ybgr,0.35-0.75,2021_May_20_1429,color_judgement_and_subjective_perception,2020.2.10,60.03605104778243,
1,0.9,training,1000,,,,,,0,80,80,80,,,,,,,,,,,,,1608.1414516549994,None,d,0.5844733769990853,1608.2414182259963,None,1607.6572014839985,1608.0579422629962,1608.8578368029994,1609.3581757639986,1608.8578368029994,None,,,,,,16,001,exponential,ybgr,0.35-0.75,2021_May_20_1429,color_judgement_and_subjective_perception,2020.2.10,60.03605104778243,
3,0.9,training,1000,,,,,,0,81,81,81,,,,,,,,,,,,,1609.9583403249999,None,k,0.5595642150001368,1610.0582987089947,None,1609.4579569659982,1609.8749088209952,1610.641628915997,1611.1418304519975,1610.641628915997,None,,,,,,16,001,exponential,ybgr,0.35-0.75,2021_May_20_1429,color_judgement_and_subjective_perception,2020.2.10,60.03605104778243,
3,0.9,training,1000,,,,,,0,82,82,82,,,,,,,,,,,,,1611.7419434589974,None,k,0.8400123350002104,1611.8418645529964,None,1611.2445432039967,1611.6585209869954,1612.7086036440014,1613.1930196959947,1612.7086036440014,None,,,,,,16,001,exponential,ybgr,0.35-0.75,2021_May_20_1429,color_judgement_and_subjective_perception,2020.2.10,60.03605104778243,
2,0.9,training,1000,,,,,,0,83,83,83,,,,,,,,,,,,,1613.792982715,None,j,0.5968004599999404,1613.893073207997,None,1613.292881510999,1613.7095908759948,1614.5096513780009,1615.009882182996,1614.5096513780009,None,,,,,,16,001,exponential,ybgr,0.35-0.75,2021_May_20_1429,color_judgement_and_subjective_perception,2020.2.10,60.03605104778243,
2,0.9,training,1000,,,,,,0,84,84,84,,,,,,,,,,,,,1615.6100563059954,None,j,0.3557407760017668,1615.7101119559957,None,1615.1099953759986,1615.526594431998,1616.0932284029986,1616.5934669220005,1616.0932284029986,None,,,,,,16,001,exponential,ybgr,0.35-0.75,2021_May_20_1429,color_judgement_and_subjective_perception,2020.2.10,60.03605104778243,
2,0.9,training,1000,,,,,,0,85,85,85,,,,,,,,,,,,,1617.1936396320016,None,j,0.5804015690009692,1617.293488768999,None,1616.693350362999,1617.1102912159986,1617.8945080019985,1618.3945811809972,1617.8945080019985,None,,,,,,16,001,exponential,ybgr,0.35-0.75,2021_May_20_1429,color_judgement_and_subjective_perception,2020.2.10,60.03605104778243,
2,0.9,training,1000,,,,,,0,86,86,86,,,,,,,,,,,,,1618.9947176880014,None,j,0.5311347839960945,1619.0947442459947,None,1618.4946731289965,1618.9112194350018,1619.6447316259946,1620.1449666229964,1619.6447316259946,None,,,,,,16,001,exponential,ybgr,0.35-0.75,2021_May_20_1429,color_judgement_and_subjective_perception,2020.2.10,60.03605104778243,
1,0.9,training,1000,,,,,,0,87,87,87,,,,,,,,,,,,,1620.7449218990005,None,f,0.6447385589999612,1620.8451366340014,None,1620.244752106999,1620.6617399230017,1621.5117200879977,1622.0118368539988,1621.5117200879977,None,,,,,,16,001,exponential,ybgr,0.35-0.75,2021_May_20_1429,color_judgement_and_subjective_perception,2020.2.10,60.03605104778243,
2,0.9,training,1000,,,,,,0,88,88,88,,,,,,,,,,,,,1622.611963880001,None,j,0.7059045360001619,1622.7119201009991,None,1622.1117228379953,1622.528436444998,1623.4460427519953,1623.9462222930015,1623.4460427519953,None,,,,,,16,001,exponential,ybgr,0.35-0.75,2021_May_20_1429,color_judgement_and_subjective_perception,2020.2.10,60.03605104778243,
2,0.9,training,1000,,,,,,0,89,89,89,,,,,,,,,,,,,1624.5462376409996,None,j,0.6754906259957352,1624.6463637630004,None,1624.0461054740008,1624.4630699409972,1625.3463202130006,1625.8466185389989,1625.3463202130006,None,,,,,,16,001,exponential,ybgr,0.35-0.75,2021_May_20_1429,color_judgement_and_subjective_perception,2020.2.10,60.03605104778243,
1,0.9,training,1000,,,,,,0,90,90,90,,,,,,,,,,,,,1626.4464753529974,None,f,0.6231670359993586,1626.546699282997,None,1625.9465480450017,1626.3632881219964,1627.1966113859962,1627.6966740869975,1627.1966113859962,None,,,,,,16,001,exponential,ybgr,0.35-0.75,2021_May_20_1429,color_judgement_and_subjective_perception,2020.2.10,60.03605104778243,
0,0.9,training,1000,,,,,,0,91,91,91,,,,,,,,,,,,,1628.2809462410005,None,d,0.6047764659961103,1628.3810987879988,None,1627.795426757999,1628.197682318998,1629.0142873959994,1629.5145327520004,1629.0142873959994,None,,,,,,16,001,exponential,ybgr,0.35-0.75,2021_May_20_1429,color_judgement_and_subjective_perception,2020.2.10,60.03605104778243,
3,0.9,training,1000,,,,,,0,92,92,92,,,,,,,,,,,,,1630.1147342309996,None,k,0.6590813120055827,1630.214773668995,None,1629.6144236120017,1630.031433088996,1630.8980497890007,1631.3981120539975,1630.8980497890007,None,,,,,,16,001,exponential,ybgr,0.35-0.75,2021_May_20_1429,color_judgement_and_subjective_perception,2020.2.10,60.03605104778243,
0,0.9,training,1000,,,,,,0,93,93,93,,,,,,,,,,,,,1631.998261007,None,d,0.47955825999815715,1632.0982873569956,None,1631.4979715689988,1631.9149502610016,1632.598262380001,1633.082741307997,1632.598262380001,None,,,,,,16,001,exponential,ybgr,0.35-0.75,2021_May_20_1429,color_judgement_and_subjective_perception,2020.2.10,60.03605104778243,
3,0.9,training,1000,,,,,,0,94,94,94,,,,,,,,,,,,,1633.6826576449967,None,k,0.5632502169974032,1633.7826188799954,None,1633.1824129749948,1633.5991037179992,1634.366049461998,1634.8662116039995,1634.366049461998,None,,,,,,16,001,exponential,ybgr,0.35-0.75,2021_May_20_1429,color_judgement_and_subjective_perception,2020.2.10,60.03605104778243,
1,0.9,training,1000,,,,,,0,95,95,95,,,,,,,,,,,,,1635.4664000330013,None,f,0.5954041540026083,1635.566414558998,None,1634.9662011690016,1635.3830004260017,1636.1829868319983,1636.6831334839953,1636.1829868319983,None,,,,,,16,001,exponential,ybgr,0.35-0.75,2021_May_20_1429,color_judgement_and_subjective_perception,2020.2.10,60.03605104778243,
2,0.35,testing,1000,1,,,,,,,,,0,0,0,0,0,0,0,2,,,,,1648.5208336919968,None,None,-1,1648.620740350998,None,1648.0229420760006,1648.437501155,1649.5373756659974,1650.0375882959997,1649.5373756659974,None,0,21,0,,,16,001,exponential,ybgr,0.35-0.75,2021_May_20_1429,color_judgement_and_subjective_perception,2020.2.10,60.03605104778243,
3,0.35,testing,1000,1,,,,,,,,,0,0,0,0,0,1,1,3,,,,,1650.637742936,None,None,-1,1650.7377897519982,None,1650.1375792519975,1650.5544972899952,1651.6544907209973,1652.1546008629957,1651.6544907209973,None,38,13,0,,,16,001,exponential,ybgr,0.35-0.75,2021_May_20_1429,color_judgement_and_subjective_perception,2020.2.10,60.03605104778243,
1,0.35,testing,1000,1,,,,,,,,,0,0,0,0,0,2,2,1,,,,,1652.754725409999,None,None,-1,1652.8388693969973,None,1652.2545723529984,1652.6712986109997,1653.755486709997,1654.255757592,1653.755486709997,None,0,0,25,,,16,001,exponential,ybgr,0.35-0.75,2021_May_20_1429,color_judgement_and_subjective_perception,2020.2.10,60.03605104778243,
0,0.35,testing,1000,1,,,,,,,,,0,0,0,0,0,3,3,0,,,,,1654.8558461879948,None,None,-1,1654.9558970829967,None,1654.355592353997,1654.7725943459955,1655.8727056489952,1656.3726767510016,1655.8727056489952,None,30,30,0,,,16,001,exponential,ybgr,0.35-0.75,2021_May_20_1429,color_judgement_and_subjective_perception,2020.2.10,60.03605104778243,
3,0.35,testing,1000,1,,,,,,,,,0,0,0,0,1,0,4,3,,,,,1656.9729293529963,None,None,-1,1657.072843258,None,1656.4727523799957,1656.8893078779947,1657.9738223919994,1658.473778968997,1657.9738223919994,None,42,14,0,,,16,001,exponential,ybgr,0.35-0.75,2021_May_20_1429,color_judgement_and_subjective_perception,2020.2.10,60.03605104778243,
0,0.35,testing,1000,1,,,,,,,,,0,0,0,0,1,1,5,0,,,,,1659.0738400109985,None,None,-1,1659.1739913130004,None,1658.5737067879963,1658.9906344629999,1660.090614392997,1660.591067606998,1660.090614392997,None,33,33,0,,,16,001,exponential,ybgr,0.35-0.75,2021_May_20_1429,color_judgement_and_subjective_perception,2020.2.10,60.03605104778243,
1,0.35,testing,1000,1,,,,,,,,,0,0,0,0,1,2,6,1,,,,,1661.1909374140014,None,j,0.4148071820018231,1661.2910581949982,None,1660.6908669319964,1661.1075940309966,1661.7241757009979,1662.2242354010014,1661.7241757009979,None,0,0,30,,,16,001,exponential,ybgr,0.35-0.75,2021_May_20_1429,color_judgement_and_subjective_perception,2020.2.10,60.03605104778243,
2,0.35,testing,1000,1,,,,,,,,,0,0,0,0,1,3,7,2,,,,,1662.8158240830016,None,None,-1,1662.9088283189994,None,1662.3244982859978,1662.7412358069996,1663.8252893629979,1664.3255092339969,1663.8252893629979,None,0,29,0,,,16,001,exponential,ybgr,0.35-0.75,2021_May_20_1429,color_judgement_and_subjective_perception,2020.2.10,60.03605104778243,
2,0.35,testing,1000,1,,,,,,,,,0,0,0,0,2,0,8,2,,,,,1664.9257308250017,None,d,0.41629969800123945,1665.025556556,None,1664.425363549999,1664.8423593670013,1665.4588849089996,1665.9592928299971,1665.4588849089996,None,0,31,0,,,16,001,exponential,ybgr,0.35-0.75,2021_May_20_1429,color_judgement_and_subjective_perception,2020.2.10,60.03605104778243,
1,0.35,testing,1000,1,,,,,,,,,0,0,0,0,2,1,9,1,,,,,1666.5592916390015,None,k,0.34256069399998523,1666.6593062280008,None,1666.0591615369995,1666.4758857349952,1667.0258132119998,1667.5261140399962,1667.0258132119998,None,0,0,34,,,16,001,exponential,ybgr,0.35-0.75,2021_May_20_1429,color_judgement_and_subjective_perception,2020.2.10,60.03605104778243,
0,0.35,testing,1000,1,,,,,,,,,0,0,0,0,2,2,10,0,,,,,1668.1103954779974,None,k,0.5435646309997537,1668.210308884998,None,1667.6259096799986,1668.0268786259985,1668.776929103995,1669.2772496609978,1668.776929103995,None,39,39,0,,,16,001,exponential,ybgr,0.35-0.75,2021_May_20_1429,color_judgement_and_subjective_perception,2020.2.10,60.03605104778243,
3,0.35,testing,1000,1,,,,,,,,,0,0,0,0,2,3,11,3,,,,,1669.8773120179976,None,k,0.8086270130006596,1669.9772716669977,None,1669.3770532929993,1669.7938695729972,1670.810679274,1671.310761351997,1670.810679274,None,50,17,0,,,16,001,exponential,ybgr,0.35-0.75,2021_May_20_1429,color_judgement_and_subjective_perception,2020.2.10,60.03605104778243,
0,0.35,testing,1000,1,,,,,,,,,0,0,0,0,3,0,12,0,,,,,1671.9108432939975,None,k,0.3830565949974698,1672.010799456999,None,1671.4107390979989,1671.8274720789996,1672.4109088039986,1672.8951341909997,1672.4109088039986,None,42,42,0,,,16,001,exponential,ybgr,0.35-0.75,2021_May_20_1429,color_judgement_and_subjective_perception,2020.2.10,60.03605104778243,
1,0.35,testing,1000,1,,,,,,,,,0,0,0,0,3,1,13,1,,,,,1673.4950988080018,None,None,-1,1673.5952062139986,None,1672.9952218399994,1673.4120570769956,1674.5120212369948,1675.012135566998,1674.5120212369948,None,0,0,39,,,16,001,exponential,ybgr,0.35-0.75,2021_May_20_1429,color_judgement_and_subjective_perception,2020.2.10,60.03605104778243,
3,0.35,testing,1000,1,,,,,,,,,0,0,0,0,3,2,14,3,,,,,1675.612322601999,None,k,0.7372943350055721,1675.7125368929992,None,1675.1122052669962,1675.5288854539976,1676.4788655839948,1676.9790954359996,1676.4788655839948,None,54,18,0,,,16,001,exponential,ybgr,0.35-0.75,2021_May_20_1429,color_judgement_and_subjective_perception,2020.2.10,60.03605104778243,
2,0.35,testing,1000,1,,,,,,,,,0,0,0,0,3,3,15,2,,,,,1677.5791904529979,None,j,0.610657153003558,1677.679217197001,None,1677.0790570159952,1677.495882203999,1678.313436381999,1678.8135024750009,1678.313436381999,None,0,37,0,,,16,001,exponential,ybgr,0.35-0.75,2021_May_20_1429,color_judgement_and_subjective_perception,2020.2.10,60.03605104778243,
2,0.35,testing,1000,1,,,,,,,,,0,0,0,0,4,0,16,2,,,,,1679.4135743029983,None,j,0.7122242070036009,1679.5136679889983,None,1678.913529685,1679.3302642220006,1680.2470255820008,1680.7471607939951,1680.2470255820008,None,0,37,0,,,16,001,exponential,ybgr,0.35-0.75,2021_May_20_1429,color_judgement_and_subjective_perception,2020.2.10,60.03605104778243,
1,0.35,testing,1000,1,,,,,,,,,0,0,0,0,4,1,17,1,,,,,1681.347109780996,None,None,-1,1681.4471735639963,None,1680.847114322998,1681.263871584997,1682.3640136639951,1682.8484068210018,1682.3640136639951,None,0,0,38,,,16,001,exponential,ybgr,0.35-0.75,2021_May_20_1429,color_judgement_and_subjective_perception,2020.2.10,60.03605104778243,
3,0.35,testing,1000,1,,,,,,,,,0,0,0,0,4,2,18,3,,,,,1683.448394305,None,d,0.32549149000260513,1683.5484009529973,None,1682.9483837329972,1683.3650067729977,1683.8982386399948,1684.3818223999988,1683.8982386399948,None,49,16,0,,,16,001,exponential,ybgr,0.35-0.75,2021_May_20_1429,color_judgement_and_subjective_perception,2020.2.10,60.03605104778243,
0,0.35,testing,1000,1,,,,,,,,,0,0,0,0,4,3,19,0,,,,,1684.9654859629954,None,f,0.5844938309965073,1685.0653932749992,None,1684.4817216039955,1684.8820531839956,1685.6821170959956,1686.1654679639978,1685.6821170959956,None,42,42,0,,,16,001,exponential,ybgr,0.35-0.75,2021_May_20_1429,color_judgement_and_subjective_perception,2020.2.10,60.03605104778243,
3,0.35,testing,1000,1,,,,,,,,,0,0,0,0,5,0,20,3,,,,,1686.7655432699976,None,d,0.5044100520026404,1686.865452344995,None,1686.2655266629954,1686.6821399949986,1687.3989223109966,1687.8831803879948,1687.3989223109966,None,50,17,0,,,16,001,exponential,ybgr,0.35-0.75,2021_May_20_1429,color_judgement_and_subjective_perception,2020.2.10,60.03605104778243,
2,0.35,testing,1000,1,,,,,,,,,0,0,0,0,5,1,21,2,,,,,1688.4831628959946,None,None,-1,1688.583279612998,None,1687.9832035,1688.400057963001,1689.4999748749979,1690.0003323759956,1689.4999748749979,None,0,37,0,,,16,001,exponential,ybgr,0.35-0.75,2021_May_20_1429,color_judgement_and_subjective_perception,2020.2.10,60.03605104778243,
0,0.35,testing,1000,1,,,,,,,,,0,0,0,0,5,2,22,0,,,,,1690.6004904919973,None,j,0.2692636709980434,1690.7005949689992,None,1690.100341090998,1690.517036981997,1691.0001674099985,1691.5004068540002,1691.0001674099985,None,46,46,0,,,16,001,exponential,ybgr,0.35-0.75,2021_May_20_1429,color_judgement_and_subjective_perception,2020.2.10,60.03605104778243,
1,0.35,testing,1000,1,,,,,,,,,0,0,0,0,5,3,23,1,,,,,1692.1005350630003,None,f,0.22543134500301676,1692.20043782,None,1691.6003952870014,1692.0171397239974,1692.450422116999,1692.9348846799985,1692.450422116999,None,0,0,43,,,16,001,exponential,ybgr,0.35-0.75,2021_May_20_1429,color_judgement_and_subjective_perception,2020.2.10,60.03605104778243,
3,0.35,testing,1000,1,,,,,,,,,0,0,0,0,6,0,24,3,,,,,1693.534892040996,None,k,0.5829268570014392,1693.634935725997,None,1693.0348096859962,1693.4514671739962,1694.2348383450008,1694.7349959839994,1694.2348383450008,None,53,18,0,,,16,001,exponential,ybgr,0.35-0.75,2021_May_20_1429,color_judgement_and_subjective_perception,2020.2.10,60.03605104778243,
1,0.35,testing,1000,1,,,,,,,,,0,0,0,0,6,1,25,1,,,,,1695.3352094209986,None,d,0.40652648999821395,1695.4353242969955,None,1694.8350912329988,1695.251909658,1695.8685405729993,1696.3685037299947,1695.8685405729993,None,0,0,42,,,16,001,exponential,ybgr,0.35-0.75,2021_May_20_1429,color_judgement_and_subjective_perception,2020.2.10,60.03605104778243,
2,0.35,testing,1000,1,,,,,,,,,0,0,0,0,6,2,26,2,,,,,1696.9686834890017,None,f,0.38096470599703025,1697.0689066709965,None,1696.468667438996,1696.8854443169985,1697.4688186970016,1697.953143064995,1697.4688186970016,None,0,35,0,,,16,001,exponential,ybgr,0.35-0.75,2021_May_20_1429,color_judgement_and_subjective_perception,2020.2.10,60.03605104778243,
0,0.35,testing,1000,1,,,,,,,,,0,0,0,0,6,3,27,0,,,,,1698.5532313270014,None,j,0.37256790100218495,1698.6533337049987,None,1698.0530708320002,1698.4698360609982,1699.0530706849968,1699.5532441940013,1699.0530706849968,None,46,46,0,,,16,001,exponential,ybgr,0.35-0.75,2021_May_20_1429,color_judgement_and_subjective_perception,2020.2.10,60.03605104778243,
0,0.35,testing,1000,1,,,,,,,,,0,0,0,0,7,0,28,0,,,,,1700.1535747829985,None,j,0.8682896149985027,1700.2535180159975,None,1699.652983410997,1700.0701374529963,1701.1535340170012,1701.6535232359965,1701.1535340170012,None,48,48,0,,,16,001,exponential,ybgr,0.35-0.75,2021_May_20_1429,color_judgement_and_subjective_perception,2020.2.10,60.03605104778243,
3,0.35,testing,1000,1,,,,,,,,,0,0,0,0,7,1,29,3,,,,,1702.2536937269979,None,k,0.3040428250023979,1702.3537281519966,None,1701.7535313189946,1702.1704420710012,1702.6869506229996,1703.1714114959977,1702.6869506229996,None,53,18,0,,,16,001,exponential,ybgr,0.35-0.75,2021_May_20_1429,color_judgement_and_subjective_perception,2020.2.10,60.03605104778243,
1,0.35,testing,1000,1,,,,,,,,,0,0,0,0,7,2,30,1,,,,,1703.7713467629947,None,f,0.7144852099954733,1703.8714262569993,None,1703.271263773,1703.6881405059976,1704.6048211239977,1705.1050537759947,1704.6048211239977,None,0,0,44,,,16,001,exponential,ybgr,0.35-0.75,2021_May_20_1429,color_judgement_and_subjective_perception,2020.2.10,60.03605104778243,
2,0.35,testing,1000,1,,,,,,,,,0,0,0,0,7,3,31,2,,,,,1705.7051405149978,None,j,0.5806946029988467,1705.8051846070011,None,1705.2049537560015,1705.6217813159965,1706.4049950339977,1706.9052933959974,1706.4049950339977,None,0,37,0,,,16,001,exponential,ybgr,0.35-0.75,2021_May_20_1429,color_judgement_and_subjective_perception,2020.2.10,60.03605104778243,
2,0.35,testing,1000,1,,,,,,,,,0,0,0,0,8,0,32,2,,,,,1707.505409423,None,d,0.06846223699540133,1707.6053980860015,None,1707.005294609,1707.4219929109968,1707.7052571159948,1708.1894865239956,1707.7052571159948,None,0,35,0,,,16,001,exponential,ybgr,0.35-0.75,2021_May_20_1429,color_judgement_and_subjective_perception,2020.2.10,60.03605104778243,
3,0.35,testing,1000,1,,,,,,,,,0,0,0,0,8,1,33,3,,,,,1708.7897681039976,None,k,0.5762515719980001,1708.8896151549998,None,1708.2895327570004,1708.7063595110012,1709.4895816889984,1709.9898887460004,1709.4895816889984,None,48,16,0,,,16,001,exponential,ybgr,0.35-0.75,2021_May_20_1429,color_judgement_and_subjective_perception,2020.2.10,60.03605104778243,
0,0.35,testing,1000,1,,,,,,,,,0,0,0,0,8,2,34,0,,,,,1710.590120091998,None,j,0.3198167009977624,1710.690076134997,None,1710.0897253090006,1710.5067251799992,1711.0400251659958,1711.5401117529982,1711.0400251659958,None,45,45,0,,,16,001,exponential,ybgr,0.35-0.75,2021_May_20_1429,color_judgement_and_subjective_perception,2020.2.10,60.03605104778243,
1,0.35,testing,1000,1,,,,,,,,,0,0,0,0,8,3,35,1,,,,,1712.1401596659998,None,f,0.10567386600450845,1712.2402009069992,None,1711.6401037260002,1712.0569091549987,1712.3733984309947,1712.8583806879979,1712.3733984309947,None,0,0,38,,,16,001,exponential,ybgr,0.35-0.75,2021_May_20_1429,color_judgement_and_subjective_perception,2020.2.10,60.03605104778243,
1,0.35,testing,1000,1,,,,,,,,,0,0,0,0,9,0,36,1,,,,,1713.4579017610013,None,d,0.49196055100037483,1713.5579095909998,None,1712.9579162989976,1713.3747182169973,1714.0743749620015,1714.5746991159976,1714.0743749620015,None,0,0,36,,,16,001,exponential,ybgr,0.35-0.75,2021_May_20_1429,color_judgement_and_subjective_perception,2020.2.10,60.03605104778243,
3,0.35,testing,1000,1,,,,,,,,,0,0,0,0,9,1,37,3,,,,,1715.1749054710017,None,k,0.4628508080058964,1715.274991802995,None,1714.6746881169965,1715.0915003619957,1715.7582806259961,1716.2583732919957,1715.7582806259961,None,43,14,0,,,16,001,exponential,ybgr,0.35-0.75,2021_May_20_1429,color_judgement_and_subjective_perception,2020.2.10,60.03605104778243,
0,0.35,testing,1000,1,,,,,,,,,0,0,0,0,9,2,38,0,,,,,1716.8584007329991,None,k,0.42744206199859036,1716.9583597839955,None,1716.3583004959946,1716.775011480997,1717.4083383229954,1717.8927905210003,1717.4083383229954,None,42,42,0,,,16,001,exponential,ybgr,0.35-0.75,2021_May_20_1429,color_judgement_and_subjective_perception,2020.2.10,60.03605104778243,
2,0.35,testing,1000,1,,,,,,,,,0,0,0,0,9,3,39,2,,,,,1718.4930504099975,None,j,0.3929676209954778,1718.592929018996,None,1717.9927596759953,1718.4095094379954,1719.009407448997,1719.5097280519985,1719.009407448997,None,0,29,0,,,16,001,exponential,ybgr,0.35-0.75,2021_May_20_1429,color_judgement_and_subjective_perception,2020.2.10,60.03605104778243,
2,0.35,testing,1000,1,,,,,,,,,0,0,0,0,10,0,40,2,,,,,1720.109739995998,None,f,0.38404000100126723,1720.2097449360008,None,1719.6097037219952,1720.0264659109962,1720.6264174530006,1721.1265809909964,1720.6264174530006,None,0,27,0,,,16,001,exponential,ybgr,0.35-0.75,2021_May_20_1429,color_judgement_and_subjective_perception,2020.2.10,60.03605104778243,
3,0.35,testing,1000,1,,,,,,,,,0,0,0,0,10,1,41,3,,,,,1721.7266900289978,None,d,0.34318066199921304,1721.8266666109994,None,1721.2265289329953,1721.6432158009993,1722.1933871180008,1722.6934472759967,1722.1933871180008,None,38,13,0,,,16,001,exponential,ybgr,0.35-0.75,2021_May_20_1429,color_judgement_and_subjective_perception,2020.2.10,60.03605104778243,
1,0.35,testing,1000,1,,,,,,,,,0,0,0,0,10,2,42,1,,,,,1723.2776834769975,None,k,0.27203849900251953,1723.3778157439956,None,1722.7933884279992,1723.1944937399967,1723.6776976019974,1724.177727190996,1723.6776976019974,None,0,0,31,,,16,001,exponential,ybgr,0.35-0.75,2021_May_20_1429,color_judgement_and_subjective_perception,2020.2.10,60.03605104778243,
0,0.35,testing,1000,1,,,,,,,,,0,0,0,0,10,3,43,0,,,,,1724.7777751359972,None,None,-1,1724.8780931379952,None,1724.2776448799996,1724.6945999599993,1725.7946379720015,1726.2948693360013,1725.7946379720015,None,42,42,0,,,16,001,exponential,ybgr,0.35-0.75,2021_May_20_1429,color_judgement_and_subjective_perception,2020.2.10,60.03605104778243,
0,0.35,testing,1000,1,,,,,,,,,0,0,0,0,11,0,44,0,,,,,1726.8949654839962,None,j,0.06298547999904258,1726.994902890001,None,1726.3948369249993,1726.8115401069954,1727.0781114209967,1727.5784103990009,1727.0781114209967,None,44,44,0,,,16,001,exponential,ybgr,0.35-0.75,2021_May_20_1429,color_judgement_and_subjective_perception,2020.2.10,60.03605104778243,
2,0.35,testing,1000,1,,,,,,,,,0,0,0,0,11,1,45,2,,,,,1728.1627289429962,None,f,0.6750445969955763,1728.2628260389974,None,1727.6781183429994,1728.079338208001,1728.9627073070005,1729.4628060769974,1728.9627073070005,None,0,29,0,,,16,001,exponential,ybgr,0.35-0.75,2021_May_20_1429,color_judgement_and_subjective_perception,2020.2.10,60.03605104778243,
3,0.35,testing,1000,1,,,,,,,,,0,0,0,0,11,2,46,3,,,,,1730.0628768749957,None,k,0.37492269100039266,1730.1629397279976,None,1729.562690038998,1729.9794556240013,1730.5628499689992,1731.063003094001,1730.5628499689992,None,42,14,0,,,16,001,exponential,ybgr,0.35-0.75,2021_May_20_1429,color_judgement_and_subjective_perception,2020.2.10,60.03605104778243,
1,0.35,testing,1000,1,,,,,,,,,0,0,0,0,11,3,47,1,,,,,1731.6631255999964,None,j,0.32681778600090183,1731.7630844899977,None,1731.1628881949946,1731.5796945690017,1732.1130351280008,1732.6134136670007,1732.1130351280008,None,0,0,37,,,16,001,exponential,ybgr,0.35-0.75,2021_May_20_1429,color_judgement_and_subjective_perception,2020.2.10,60.03605104778243,
1,0.35,testing,1000,1,,,,,,,,,0,0,0,0,12,0,48,1,,,,,1733.1976022070012,None,d,0.12031600000045728,1733.2975516430015,None,1732.7133091950018,1733.114160049001,1733.447294092999,1733.9476638889973,1733.447294092999,None,0,0,39,,,16,001,exponential,ybgr,0.35-0.75,2021_May_20_1429,color_judgement_and_subjective_perception,2020.2.10,60.03605104778243,
3,0.35,testing,1000,1,,,,,,,,,0,0,0,0,12,1,49,3,,,,,1734.5309951820018,None,k,0.4987102480008616,1734.6311221419965,None,1734.0475065200008,1734.4477615989963,1735.1476870059996,1735.6313276329965,1735.1476870059996,None,44,15,0,,,16,001,exponential,ybgr,0.35-0.75,2021_May_20_1429,color_judgement_and_subjective_perception,2020.2.10,60.03605104778243,
0,0.35,testing,1000,1,,,,,,,,,0,0,0,0,12,2,50,0,,,,,1736.1650190479995,None,j,0.38728097800049,1736.2226131579955,None,1735.731226209995,1736.1059755109964,1736.6276041309975,1737.048006115001,1736.6276041309975,None,49,49,0,,,16,001,exponential,ybgr,0.35-0.75,2021_May_20_1429,color_judgement_and_subjective_perception,2020.2.10,60.03605104778243,
2,0.35,testing,1000,1,,,,,,,,,0,0,0,0,12,3,51,2,,,,,1737.648154798997,None,f,0.46964174899767386,1737.7482295449954,None,1737.147994854,1737.5649224419976,1738.249064947995,1738.7492129179955,1738.249064947995,None,0,34,0,,,16,001,exponential,ybgr,0.35-0.75,2021_May_20_1429,color_judgement_and_subjective_perception,2020.2.10,60.03605104778243,
2,0.35,testing,1000,1,,,,,,,,,0,0,0,0,13,0,52,2,,,,,1739.349267657999,None,j,0.3685547719942406,1739.449294070997,None,1738.8492232249992,1739.2658377319967,1739.8492688109982,1740.3494632069996,1739.8492688109982,None,0,36,0,,,16,001,exponential,ybgr,0.35-0.75,2021_May_20_1429,color_judgement_and_subjective_perception,2020.2.10,60.03605104778243,
1,0.35,testing,1000,1,,,,,,,,,0,0,0,0,13,1,53,1,,,,,1740.949486034995,None,f,0.8724782060016878,1741.0493841200005,None,1740.4494610819966,1740.8661893530007,1741.9494990569947,1742.4496650410001,1741.9494990569947,None,0,0,41,,,16,001,exponential,ybgr,0.35-0.75,2021_May_20_1429,color_judgement_and_subjective_perception,2020.2.10,60.03605104778243,
0,0.35,testing,1000,1,,,,,,,,,0,0,0,0,13,2,54,0,,,,,1743.0338927310004,None,d,0.30741642299835803,1743.1344818559955,None,1742.5497271159984,1742.950736738996,1743.4671980229978,1743.9672363649952,1743.4671980229978,None,50,50,0,,,16,001,exponential,ybgr,0.35-0.75,2021_May_20_1429,color_judgement_and_subjective_perception,2020.2.10,60.03605104778243,
3,0.35,testing,1000,1,,,,,,,,,0,0,0,0,13,3,55,3,,,,,1744.5675127649956,None,k,0.19829831099923467,1744.6675951719953,None,1744.067560218995,1744.484129149998,1744.884111209998,1745.3844590840017,1744.884111209998,None,41,14,0,,,16,001,exponential,ybgr,0.35-0.75,2021_May_20_1429,color_judgement_and_subjective_perception,2020.2.10,60.03605104778243,
0,0.35,testing,1000,1,,,,,,,,,0,0,0,0,14,0,56,0,,,,,1745.9845773580018,None,j,0.5733122599995113,1746.0845697650002,None,1745.484350533996,1745.9012719609964,1746.684394842996,1747.1845848750017,1746.684394842996,None,49,49,0,,,16,001,exponential,ybgr,0.35-0.75,2021_May_20_1429,color_judgement_and_subjective_perception,2020.2.10,60.03605104778243,
3,0.35,testing,1000,1,,,,,,,,,0,0,0,0,14,1,57,3,,,,,1747.7846134529973,None,f,0.26037918899965007,1747.8693761940012,None,1747.2846460910005,1747.7015338209967,1748.152099574996,1748.6523808499987,1748.152099574996,None,38,13,0,,,16,001,exponential,ybgr,0.35-0.75,2021_May_20_1429,color_judgement_and_subjective_perception,2020.2.10,60.03605104778243,
2,0.35,testing,1000,1,,,,,,,,,0,0,0,0,14,2,58,2,,,,,1749.2524049829954,None,d,0.22534198900393676,1749.3525628329953,None,1748.7523771189954,1749.1690420359955,1749.6022780139974,1750.1025905450006,1749.6022780139974,None,0,29,0,,,16,001,exponential,ybgr,0.35-0.75,2021_May_20_1429,color_judgement_and_subjective_perception,2020.2.10,60.03605104778243,
1,0.35,testing,1000,1,,,,,,,,,0,0,0,0,14,3,59,1,,,,,1750.7026746299962,None,None,-1,1750.8027794879963,None,1750.2025323810012,1750.6191857789963,1751.7192767919987,1752.2195190310013,1751.7192767919987,None,0,0,36,,,16,001,exponential,ybgr,0.35-0.75,2021_May_20_1429,color_judgement_and_subjective_perception,2020.2.10,60.03605104778243,
3,0.35,testing,1000,1,,,,,,,,,0,0,0,0,15,0,60,3,,,,,1752.819614561995,None,k,0.5700774650031235,1752.903854129996,None,1752.3194697079962,1752.7362154049988,1753.503730669996,1754.003911984997,1753.503730669996,None,38,13,0,,,16,001,exponential,ybgr,0.35-0.75,2021_May_20_1429,color_judgement_and_subjective_perception,2020.2.10,60.03605104778243,
2,0.35,testing,1000,1,,,,,,,,,0,0,0,0,15,1,61,2,,,,,1754.603889688995,None,f,0.24987984300241806,1754.7039802180007,None,1754.1038665099986,1754.5206001309998,1754.9705478629985,1755.470884579001,1754.9705478629985,None,0,31,0,,,16,001,exponential,ybgr,0.35-0.75,2021_May_20_1429,color_judgement_and_subjective_perception,2020.2.10,60.03605104778243,
0,0.35,testing,1000,1,,,,,,,,,0,0,0,0,15,2,62,0,,,,,1756.0709333490013,None,None,-1,1756.1709655570012,None,1755.5708247959992,1755.9875516899992,1757.0878600299984,1757.5878370919963,1757.0878600299984,None,50,50,0,,,16,001,exponential,ybgr,0.35-0.75,2021_May_20_1429,color_judgement_and_subjective_perception,2020.2.10,60.03605104778243,
1,0.35,testing,1000,1,,,,,,,,,0,0,0,0,15,3,63,1,,,,,1758.172160932998,None,j,0.36180415299895685,1758.2720663079963,None,1757.6876694460007,1758.0889400529995,1758.6552661339956,1759.155534532998,1758.6552661339956,None,0,0,39,,,16,001,exponential,ybgr,0.35-0.75,2021_May_20_1429,color_judgement_and_subjective_perception,2020.2.10,60.03605104778243,
3,0.35,testing,1000,1,,,,,,,,,0,0,0,0,16,0,64,3,,,,,1759.7555492129977,None,f,0.20224295500520384,1759.8556269940018,None,1759.2552423410016,1759.672313598996,1760.0889399949956,1760.5892697259987,1760.0889399949956,None,39,13,0,,,16,001,exponential,ybgr,0.35-0.75,2021_May_20_1429,color_judgement_and_subjective_perception,2020.2.10,60.03605104778243,
0,0.35,testing,1000,1,,,,,,,,,0,0,0,0,16,1,65,0,,,,,1761.1890718629948,None,k,0.17669079199549742,1761.2891933270002,None,1760.6889925040014,1761.1059488799947,1761.488994075,1761.9893094559957,1761.488994075,None,54,54,0,,,16,001,exponential,ybgr,0.35-0.75,2021_May_20_1429,color_judgement_and_subjective_perception,2020.2.10,60.03605104778243,
1,0.35,testing,1000,1,,,,,,,,,0,0,0,0,16,2,66,1,,,,,1762.589533913997,None,d,0.26456810499803396,1762.6893428839976,None,1762.089374215997,1762.5058267610002,1762.9733871360004,1763.4736522759995,1762.9733871360004,None,0,0,43,,,16,001,exponential,ybgr,0.35-0.75,2021_May_20_1429,color_judgement_and_subjective_perception,2020.2.10,60.03605104778243,
2,0.35,testing,1000,1,,,,,,,,,0,0,0,0,16,3,67,2,,,,,1764.0735958369987,None,f,0.22811497600196162,1764.1737654960016,None,1763.5735016109975,1763.9902325090006,1764.4236881059987,1764.9240924229962,1764.4236881059987,None,0,38,0,,,16,001,exponential,ybgr,0.35-0.75,2021_May_20_1429,color_judgement_and_subjective_perception,2020.2.10,60.03605104778243,
0,0.35,testing,1000,1,,,,,,,,,0,0,0,0,17,0,68,0,,,,,1765.5242234539983,None,j,0.297621468998841,1765.6242206509996,None,1765.0237852349965,1765.4405737849956,1765.9406849449952,1766.4407479270012,1765.9406849449952,None,58,58,0,,,16,001,exponential,ybgr,0.35-0.75,2021_May_20_1429,color_judgement_and_subjective_perception,2020.2.10,60.03605104778243,
1,0.35,testing,1000,1,,,,,,,,,0,0,0,0,17,1,69,1,,,,,1767.040861166999,None,j,0.48490099500486394,1767.1409714350011,None,1766.5406535759976,1766.9574964569983,1767.6575246639986,1768.141917862995,1767.6575246639986,None,0,0,47,,,16,001,exponential,ybgr,0.35-0.75,2021_May_20_1429,color_judgement_and_subjective_perception,2020.2.10,60.03605104778243,
3,0.35,testing,1000,1,,,,,,,,,0,0,0,0,17,2,70,3,,,,,1768.741852645995,None,None,-1,1768.8420945519974,None,1768.2418276949975,1768.6585758209985,1769.758583114999,1770.2589821000001,1769.758583114999,None,44,15,0,,,16,001,exponential,ybgr,0.35-0.75,2021_May_20_1429,color_judgement_and_subjective_perception,2020.2.10,60.03605104778243,
2,0.35,testing,1000,1,,,,,,,,,0,0,0,0,17,3,71,2,,,,,1770.859032606997,None,f,0.30689049300417537,1770.9589794979984,None,1770.3589045699991,1770.7756838659989,1771.292141934995,1771.792290391997,1771.292141934995,None,0,43,0,,,16,001,exponential,ybgr,0.35-0.75,2021_May_20_1429,color_judgement_and_subjective_perception,2020.2.10,60.03605104778243,
1,0.35,testing,1000,1,,,,,,,,,0,0,0,0,18,0,72,1,,,,,1772.392447391001,None,None,-1,1772.4926493730018,None,1771.8924603139967,1772.3091315739948,1773.3933964899988,1773.8936444239953,1773.3933964899988,None,0,0,51,,,16,001,exponential,ybgr,0.35-0.75,2021_May_20_1429,color_judgement_and_subjective_perception,2020.2.10,60.03605104778243,
2,0.35,testing,1000,1,,,,,,,,,0,0,0,0,18,1,73,2,,,,,1774.4936878730005,None,j,0.6322789999976521,1774.5936077949955,None,1773.993342859998,1774.4102245649992,1775.2437251699957,1775.7439522519999,1775.2437251699957,None,0,46,0,,,16,001,exponential,ybgr,0.35-0.75,2021_May_20_1429,color_judgement_and_subjective_perception,2020.2.10,60.03605104778243,
3,0.35,testing,1000,1,,,,,,,,,0,0,0,0,18,2,74,3,,,,,1776.3439939839955,None,k,0.44593352799711283,1776.443955611001,None,1775.8438767049956,1776.260615289997,1776.910590927997,1777.410761717998,1776.910590927997,None,47,16,0,,,16,001,exponential,ybgr,0.35-0.75,2021_May_20_1429,color_judgement_and_subjective_perception,2020.2.10,60.03605104778243,
0,0.35,testing,1000,1,,,,,,,,,0,0,0,0,18,3,75,0,,,,,1777.9950158689971,None,j,0.6107942480011843,1778.0949950180002,None,1777.5107270939989,1777.9117522489978,1778.7282364209968,1779.2284193809974,1778.7282364209968,None,64,64,0,,,16,001,exponential,ybgr,0.35-0.75,2021_May_20_1429,color_judgement_and_subjective_perception,2020.2.10,60.03605104778243,
2,0.35,testing,1000,1,,,,,,,,,0,0,0,0,19,0,76,2,,,,,1779.8285730110001,None,j,0.609284584003035,1779.9285766389949,None,1779.3284627749963,1779.7452708490018,1780.561949789997,1781.0621918729958,1780.561949789997,None,0,44,0,,,16,001,exponential,ybgr,0.35-0.75,2021_May_20_1429,color_judgement_and_subjective_perception,2020.2.10,60.03605104778243,
3,0.35,testing,1000,1,,,,,,,,,0,0,0,0,19,1,77,3,,,,,1781.6622073749968,None,k,0.5276197490020422,1781.762174825999,None,1781.1620617049994,1781.5789734149948,1782.3121393539986,1782.8123176199952,1782.3121393539986,None,43,14,0,,,16,001,exponential,ybgr,0.35-0.75,2021_May_20_1429,color_judgement_and_subjective_perception,2020.2.10,60.03605104778243,
0,0.35,testing,1000,1,,,,,,,,,0,0,0,0,19,2,78,0,,,,,1783.3964942419989,None,None,-1,1783.4967928369952,None,1782.896610251999,1783.313342991998,1784.4132155039988,1784.913583114998,1784.4132155039988,None,62,62,0,,,16,001,exponential,ybgr,0.35-0.75,2021_May_20_1429,color_judgement_and_subjective_perception,2020.2.10,60.03605104778243,
1,0.35,testing,1000,1,,,,,,,,,0,0,0,0,19,3,79,1,,,,,1785.5135532679997,None,f,0.34016607599915005,1785.613720866997,None,1785.0134964819954,1785.430381815997,1785.9802660339992,1786.4804719839958,1785.9802660339992,None,0,0,49,,,16,001,exponential,ybgr,0.35-0.75,2021_May_20_1429,color_judgement_and_subjective_perception,2020.2.10,60.03605104778243,
0,0.35,testing,1000,1,,,,,,,,,0,0,0,0,20,0,80,0,,,,,1787.0806453219993,None,j,0.549347348001902,1787.1804972699974,None,1786.5803050319955,1786.9971748899989,1787.7469616669987,1788.2313737239965,1787.7469616669987,None,61,61,0,,,16,001,exponential,ybgr,0.35-0.75,2021_May_20_1429,color_judgement_and_subjective_perception,2020.2.10,60.03605104778243,
1,0.35,testing,1000,1,,,,,,,,,0,0,0,0,20,1,81,1,,,,,1788.8316462809962,None,f,0.8221665160017437,1788.9317076750012,None,1788.3315710729948,1788.7484340709998,1789.7815936049956,1790.2819478029996,1789.7815936049956,None,0,0,48,,,16,001,exponential,ybgr,0.35-0.75,2021_May_20_1429,color_judgement_and_subjective_perception,2020.2.10,60.03605104778243,
3,0.35,testing,1000,1,,,,,,,,,0,0,0,0,20,2,82,3,,,,,1790.8820373049966,None,d,0.2837656839983538,1790.9820442229975,None,1790.3818091270005,1790.7986300569974,1791.298549250001,1791.7987518419977,1791.298549250001,None,37,12,0,,,16,001,exponential,ybgr,0.35-0.75,2021_May_20_1429,color_judgement_and_subjective_perception,2020.2.10,60.03605104778243,
2,0.35,testing,1000,1,,,,,,,,,0,0,0,0,20,3,83,2,,,,,1792.3986296759977,None,None,-1,1792.4989376189988,None,1791.8987078909995,1792.3155745449985,1793.3997838869982,1793.8998081569953,1793.3997838869982,None,0,36,0,,,16,001,exponential,ybgr,0.35-0.75,2021_May_20_1429,color_judgement_and_subjective_perception,2020.2.10,60.03605104778243,
2,0.35,testing,1000,1,,,,,,,,,0,0,0,0,21,0,84,2,,,,,1794.4999040469993,None,j,0.7298089850010001,1794.600060992998,None,1793.9998188789978,1794.4165534349959,1795.350099233001,1795.8503182489949,1795.350099233001,None,0,36,0,,,16,001,exponential,ybgr,0.35-0.75,2021_May_20_1429,color_judgement_and_subjective_perception,2020.2.10,60.03605104778243,
3,0.35,testing,1000,1,,,,,,,,,0,0,0,0,21,1,85,3,,,,,1796.450232653995,None,k,0.5075761690022773,1796.5503151890007,None,1795.9501741700005,1796.3668883089995,1797.0835777839966,1797.5838814009985,1797.0835777839966,None,35,12,0,,,16,001,exponential,ybgr,0.35-0.75,2021_May_20_1429,color_judgement_and_subjective_perception,2020.2.10,60.03605104778243,
0,0.35,testing,1000,1,,,,,,,,,0,0,0,0,21,2,86,0,,,,,1798.1680337840007,None,d,0.8617841989980661,1798.2680803889962,None,1797.6837855010017,1798.0848940969954,1799.1513037999975,1799.6516237659962,1799.1513037999975,None,58,58,0,,,16,001,exponential,ybgr,0.35-0.75,2021_May_20_1429,color_judgement_and_subjective_perception,2020.2.10,60.03605104778243,
1,0.35,testing,1000,1,,,,,,,,,0,0,0,0,21,3,87,1,,,,,1800.251891834996,None,f,0.31397571800334845,1800.3518946629993,None,1799.751649644997,1800.168389913997,1800.6850106150014,1801.1851481799968,1800.6850106150014,None,0,0,43,,,16,001,exponential,ybgr,0.35-0.75,2021_May_20_1429,color_judgement_and_subjective_perception,2020.2.10,60.03605104778243,
2,0.35,testing,1000,1,,,,,,,,,0,0,0,0,22,0,88,2,,,,,1801.7852222229994,None,j,0.6767566199996509,1801.8851386349997,None,1801.2850674799993,1801.7020251279973,1802.5852117629984,1803.069683718997,1802.5852117629984,None,0,31,0,,,16,001,exponential,ybgr,0.35-0.75,2021_May_20_1429,color_judgement_and_subjective_perception,2020.2.10,60.03605104778243,
1,0.35,testing,1000,1,,,,,,,,,0,0,0,0,22,1,89,1,,,,,1803.6694616690002,None,k,0.32018269399850396,1803.769653712996,None,1803.169478224001,1803.586293536995,1804.1194396639985,1804.619892791001,1804.1194396639985,None,0,0,40,,,16,001,exponential,ybgr,0.35-0.75,2021_May_20_1429,color_judgement_and_subjective_perception,2020.2.10,60.03605104778243,
0,0.35,testing,1000,1,,,,,,,,,0,0,0,0,22,2,90,0,,,,,1805.2199713090013,None,d,0.8018753650030703,1805.3200149729964,None,1804.7196802649996,1805.1365147039978,1806.1532262569963,1806.653408635997,1806.1532262569963,None,55,55,0,,,16,001,exponential,ybgr,0.35-0.75,2021_May_20_1429,color_judgement_and_subjective_perception,2020.2.10,60.03605104778243,
3,0.35,testing,1000,1,,,,,,,,,0,0,0,0,22,3,91,3,,,,,1807.253515571996,None,k,0.4803243249989464,1807.353531285,None,1806.7533457929967,1807.170179918001,1807.8534862640008,1808.3378637669957,1807.8534862640008,None,28,9,0,,,16,001,exponential,ybgr,0.35-0.75,2021_May_20_1429,color_judgement_and_subjective_perception,2020.2.10,60.03605104778243,
3,0.35,testing,1000,1,,,,,,,,,0,0,0,0,23,0,92,3,,,,,1808.9379299430002,None,f,0.5880083899974125,1809.0378421999994,None,1808.437862398001,1808.8545900099998,1809.6546215299968,1810.1548123009998,1809.6546215299968,None,26,9,0,,,16,001,exponential,ybgr,0.35-0.75,2021_May_20_1429,color_judgement_and_subjective_perception,2020.2.10,60.03605104778243,
0,0.35,testing,1000,1,,,,,,,,,0,0,0,0,23,1,93,0,,,,,1810.7548818919968,None,j,0.7230588719976367,1810.8548114289952,None,1810.2547070599976,1810.671624773,1811.6049203069997,1812.105118724001,1811.6049203069997,None,51,51,0,,,16,001,exponential,ybgr,0.35-0.75,2021_May_20_1429,color_judgement_and_subjective_perception,2020.2.10,60.03605104778243,
2,0.35,testing,1000,1,,,,,,,,,0,0,0,0,23,2,94,2,,,,,1812.7051542810004,None,k,0.5644781020018854,1812.8054023709992,None,1812.2051155160007,1812.6219052829983,1813.389473862997,1813.889453742995,1813.389473862997,None,0,24,0,,,16,001,exponential,ybgr,0.35-0.75,2021_May_20_1429,color_judgement_and_subjective_perception,2020.2.10,60.03605104778243,
1,0.35,testing,1000,1,,,,,,,,,0,0,0,0,23,3,95,1,,,,,1814.4895407919976,None,j,0.3643095080042258,1814.5895494860015,None,1813.9894481739975,1814.4063218969968,1814.9729766949968,1815.4732419220018,1814.9729766949968,None,0,0,35,,,16,001,exponential,ybgr,0.35-0.75,2021_May_20_1429,color_judgement_and_subjective_perception,2020.2.10,60.03605104778243,
2,0.35,testing,1000,1,,,,,,,,,0,0,0,0,,,,,0,0,0,2,1907.151732186001,None,k,0.7580403639949509,1907.2518339509988,None,1906.6514949519988,1907.0684058029947,1908.0372058369976,1908.5362253400017,1908.0372058369976,None,0,25,0,1815.5857801730017,None,16,001,exponential,ybgr,0.35-0.75,2021_May_20_1429,color_judgement_and_subjective_perception,2020.2.10,60.03605104778243,
3,0.35,testing,1000,1,,,,,,,,,0,0,0,0,,,,,0,1,1,3,1909.1362790060011,None,k,0.46965617800015025,1909.2361992949955,None,1908.6358916960016,1909.052829536995,1909.737695951997,1910.2364355649988,1909.737695951997,None,26,9,0,None,None,16,001,exponential,ybgr,0.35-0.75,2021_May_20_1429,color_judgement_and_subjective_perception,2020.2.10,60.03605104778243,
2,0.35,testing,1000,1,,,,,,,,,0,0,0,0,,,,,0,2,2,2,1910.8364404739987,None,j,0.5932675950025441,1910.9366229239968,None,1910.3363112719962,1910.753256101998,1911.5531339750014,1912.053346722998,1911.5531339750014,None,0,26,0,None,None,16,001,exponential,ybgr,0.35-0.75,2021_May_20_1429,color_judgement_and_subjective_perception,2020.2.10,60.03605104778243,
3,0.35,testing,1000,1,,,,,,,,,0,0,0,0,,,,,0,3,3,3,1912.6534779770009,None,f,0.6163773480002419,1912.7534622289968,None,1912.1531736789984,1912.5700775009973,1913.3895171709955,1913.8877740379976,1913.3895171709955,None,23,8,0,None,None,16,001,exponential,ybgr,0.35-0.75,2021_May_20_1429,color_judgement_and_subjective_perception,2020.2.10,60.03605104778243,
0,0.35,testing,1000,1,,,,,,,,,0,0,0,0,,,,,1,0,4,0,1914.4878533759984,None,j,0.5500030890034395,1914.5878497800004,None,1913.9875448219973,1914.4045571339957,1915.1549519420005,1915.654938750995,1915.1549519420005,None,49,49,0,None,None,16,001,exponential,ybgr,0.35-0.75,2021_May_20_1429,color_judgement_and_subjective_perception,2020.2.10,60.03605104778243,
3,0.35,testing,1000,1,,,,,,,,,0,0,0,0,,,,,1,1,5,3,1916.2548413149998,None,f,0.6391415760008385,1916.354723945995,None,1915.754608700001,1916.1715495909957,1917.0213842989979,1917.5215298199982,1917.0213842989979,None,22,7,0,None,None,16,001,exponential,ybgr,0.35-0.75,2021_May_20_1429,color_judgement_and_subjective_perception,2020.2.10,60.03605104778243,
3,0.35,testing,1000,1,,,,,,,,,0,0,0,0,,,,,1,2,6,3,1918.1059183179968,None,k,0.14786228899902198,1918.2060166149968,None,1917.621585091998,1918.0225886929984,1918.374180109,1918.8725993490007,1918.374180109,None,24,8,0,None,None,16,001,exponential,ybgr,0.35-0.75,2021_May_20_1429,color_judgement_and_subjective_perception,2020.2.10,60.03605104778243,
0,0.35,testing,1000,1,,,,,,,,,0,0,0,0,,,,,1,3,7,0,1919.4726964459987,None,j,0.5169693229981931,1919.5728095999948,None,1918.9723869079971,1919.3894660549995,1920.1243271689964,1920.6230716919963,1920.1243271689964,None,51,51,0,None,None,16,001,exponential,ybgr,0.35-0.75,2021_May_20_1429,color_judgement_and_subjective_perception,2020.2.10,60.03605104778243,
0,0.35,testing,1000,1,,,,,,,,,0,0,0,0,,,,,2,0,8,0,1921.223022375998,None,d,0.5106821869994747,1921.3230589769955,None,1920.7228570699954,1921.1397274109986,1921.8590217179953,1922.3567161379979,1921.8590217179953,None,53,53,0,None,None,16,001,exponential,ybgr,0.35-0.75,2021_May_20_1429,color_judgement_and_subjective_perception,2020.2.10,60.03605104778243,
3,0.35,testing,1000,1,,,,,,,,,0,0,0,0,,,,,2,1,9,3,1922.940814294001,None,f,0.2970011549987248,1923.0408966019968,None,1922.4564517289982,1922.8733219829955,1923.3591595629987,1923.8575358379967,1923.3591595629987,None,22,7,0,None,None,16,001,exponential,ybgr,0.35-0.75,2021_May_20_1429,color_judgement_and_subjective_perception,2020.2.10,60.03605104778243,
3,0.35,testing,1000,1,,,,,,,,,0,0,0,0,,,,,2,2,10,3,1924.4575842729973,None,j,0.5080746620005812,1924.557798128997,None,1923.9572356209974,1924.3742949449952,1925.0909437449955,1925.5912712179997,1925.0909437449955,None,20,7,0,None,None,16,001,exponential,ybgr,0.35-0.75,2021_May_20_1429,color_judgement_and_subjective_perception,2020.2.10,60.03605104778243,
3,0.35,testing,1000,1,,,,,,,,,0,0,0,0,,,,,2,3,11,3,1926.1911761209994,None,k,0.27875110099557787,1926.2911241799957,None,1925.691035238,1926.1078858699984,1926.5928147379964,1927.0913523199997,1926.5928147379964,None,22,7,0,None,None,16,001,exponential,ybgr,0.35-0.75,2021_May_20_1429,color_judgement_and_subjective_perception,2020.2.10,60.03605104778243,
1,0.35,testing,1000,1,,,,,,,,,0,0,0,0,,,,,3,0,12,1,1927.6915377619953,None,j,0.35427772300317883,1927.7915718939985,None,1927.1911913739968,1927.608177091999,1928.1773444349965,1928.6757628819978,1928.1773444349965,None,0,0,35,None,None,16,001,exponential,ybgr,0.35-0.75,2021_May_20_1429,color_judgement_and_subjective_perception,2020.2.10,60.03605104778243,
0,0.35,testing,1000,1,,,,,,,,,0,0,0,0,,,,,3,1,13,0,1929.2758728189947,None,j,0.7860188959966763,1929.3758515719965,None,1928.7756133859948,1929.1923944129958,1930.1927886319972,1930.692814887996,1930.1927886319972,None,51,51,0,None,None,16,001,exponential,ybgr,0.35-0.75,2021_May_20_1429,color_judgement_and_subjective_perception,2020.2.10,60.03605104778243,
3,0.35,testing,1000,1,,,,,,,,,0,0,0,0,,,,,3,2,14,3,1931.292858404995,None,d,0.40103654899576213,1931.3928340549974,None,1930.7927279249998,1931.209354257997,1931.8263209559955,1932.3264099340013,1931.8263209559955,None,22,7,0,None,None,16,001,exponential,ybgr,0.35-0.75,2021_May_20_1429,color_judgement_and_subjective_perception,2020.2.10,60.03605104778243,
3,0.35,testing,1000,1,,,,,,,,,0,0,0,0,,,,,3,3,15,3,1932.9177734749974,None,k,0.503081208000367,1933.0107860220014,None,1932.426214317995,1932.8431214529992,1933.5454961450014,1934.0441944429986,1933.5454961450014,None,24,8,0,None,None,16,001,exponential,ybgr,0.35-0.75,2021_May_20_1429,color_judgement_and_subjective_perception,2020.2.10,60.03605104778243,
1,0.35,testing,1000,1,,,,,,,,,0,0,0,0,,,,,4,0,16,1,1934.6442850320018,None,f,0.6177285189987742,1934.7440781580008,None,1934.1439438779998,1934.5607709379983,1935.3940426519985,1935.894428872998,1935.3940426519985,None,0,0,38,None,None,16,001,exponential,ybgr,0.35-0.75,2021_May_20_1429,color_judgement_and_subjective_perception,2020.2.10,60.03605104778243,
2,0.35,testing,1000,1,,,,,,,,,0,0,0,0,,,,,4,1,17,2,1936.4944852619956,None,d,0.36733502299466636,1936.5945141779957,None,1935.9942326000019,1936.4111500419967,1936.9963149299947,1937.4947334429962,1936.9963149299947,None,0,24,0,None,None,16,001,exponential,ybgr,0.35-0.75,2021_May_20_1429,color_judgement_and_subjective_perception,2020.2.10,60.03605104778243,
3,0.35,testing,1000,1,,,,,,,,,0,0,0,0,,,,,4,2,18,3,1938.0789616819966,None,f,0.495006047996867,1938.1788685399952,None,1937.594551784001,1937.9956645229977,1938.6955343949958,1939.1956377359966,1938.6955343949958,None,20,7,0,None,None,16,001,exponential,ybgr,0.35-0.75,2021_May_20_1429,color_judgement_and_subjective_perception,2020.2.10,60.03605104778243,
2,0.35,testing,1000,1,,,,,,,,,0,0,0,0,,,,,4,3,19,2,1939.795747971999,None,j,0.5780691540057887,1939.8956940869975,None,1939.2955081629989,1939.7126063899996,1940.4976038999957,1940.996018689999,1940.4976038999957,None,0,23,0,None,None,16,001,exponential,ybgr,0.35-0.75,2021_May_20_1429,color_judgement_and_subjective_perception,2020.2.10,60.03605104778243,
0,0.35,testing,1000,1,,,,,,,,,0,0,0,0,,,,,5,0,20,0,1941.5960296580015,None,None,-1,1941.696071335995,None,1941.0958708049948,1941.5126451399992,1942.6131555489992,1943.097231531996,1942.6131555489992,None,51,51,0,None,None,16,001,exponential,ybgr,0.35-0.75,2021_May_20_1429,color_judgement_and_subjective_perception,2020.2.10,60.03605104778243,
0,0.35,testing,1000,1,,,,,,,,,0,0,0,0,,,,,5,1,21,0,1943.6971657979957,None,d,0.06853745500120567,1943.7973153409985,None,1943.1969291610003,1943.6138257700004,1943.899031642999,1944.397312600995,1943.899031642999,None,51,51,0,None,None,16,001,exponential,ybgr,0.35-0.75,2021_May_20_1429,color_judgement_and_subjective_perception,2020.2.10,60.03605104778243,
0,0.35,testing,1000,1,,,,,,,,,0,0,0,0,,,,,5,2,22,0,1944.9972888389966,None,f,0.1843578779953532,1945.097553200998,None,1944.4968864119946,1944.9142631549985,1945.315713058997,1945.814274892,1945.315713058997,None,49,49,0,None,None,16,001,exponential,ybgr,0.35-0.75,2021_May_20_1429,color_judgement_and_subjective_perception,2020.2.10,60.03605104778243,
1,0.35,testing,1000,1,,,,,,,,,0,0,0,0,,,,,5,3,23,1,1946.4142106879954,None,j,0.6236864439997589,1946.5141863069948,None,1945.9141059909962,1946.3310095080014,1947.1643011439955,1947.6645510919989,1947.1643011439955,None,0,0,32,None,None,16,001,exponential,ybgr,0.35-0.75,2021_May_20_1429,color_judgement_and_subjective_perception,2020.2.10,60.03605104778243,
3,0.35,testing,1000,1,,,,,,,,,0,0,0,0,,,,,6,0,24,3,1948.2488013600014,None,f,0.5968100419995608,1948.3490207799987,None,1947.764307628997,1948.1654950169977,1948.9653590359958,1949.4655471789956,1948.9653590359958,None,17,6,0,None,None,16,001,exponential,ybgr,0.35-0.75,2021_May_20_1429,color_judgement_and_subjective_perception,2020.2.10,60.03605104778243,
0,0.35,testing,1000,1,,,,,,,,,0,0,0,0,,,,,6,1,25,0,1950.0655996540008,None,f,0.7561052750024828,1950.1657597609956,None,1949.565305815995,1949.9823736010003,1950.9491175340008,1951.4491971929965,1950.9491175340008,None,51,51,0,None,None,16,001,exponential,ybgr,0.35-0.75,2021_May_20_1429,color_judgement_and_subjective_perception,2020.2.10,60.03605104778243,
0,0.35,testing,1000,1,,,,,,,,,0,0,0,0,,,,,6,2,26,0,1952.0492974789959,None,d,0.2685196329985047,1952.1493523769968,None,1951.5491055409948,1951.965900878,1952.4510702330008,1952.9341591549965,1952.4510702330008,None,53,53,0,None,None,16,001,exponential,ybgr,0.35-0.75,2021_May_20_1429,color_judgement_and_subjective_perception,2020.2.10,60.03605104778243,
0,0.35,testing,1000,1,,,,,,,,,0,0,0,0,,,,,6,3,27,0,1953.5337036349956,None,d,0.2482824220060138,1953.6336231210007,None,1953.0334694379999,1953.4503253719959,1953.9002881409979,1954.400509911,1953.9002881409979,None,51,51,0,None,None,16,001,exponential,ybgr,0.35-0.75,2021_May_20_1429,color_judgement_and_subjective_perception,2020.2.10,60.03605104778243,
0,0.35,testing,1000,1,,,,,,,,,0,0,0,0,,,,,7,0,28,0,1955.0005908890016,None,d,0.5171743089958909,1955.100615026,None,1954.5002778810012,1954.9172502770016,1955.6505357259957,1956.150679845996,1955.6505357259957,None,49,49,0,None,None,16,001,exponential,ybgr,0.35-0.75,2021_May_20_1429,color_judgement_and_subjective_perception,2020.2.10,60.03605104778243,
3,0.35,testing,1000,1,,,,,,,,,0,0,0,0,,,,,7,1,29,3,1956.750781511997,None,f,0.7830370759984362,1956.8508025269985,None,1956.2505303329963,1956.667612434001,1957.6527345369977,1958.135259816001,1957.6527345369977,None,17,6,0,None,None,16,001,exponential,ybgr,0.35-0.75,2021_May_20_1429,color_judgement_and_subjective_perception,2020.2.10,60.03605104778243,
1,0.35,testing,1000,1,,,,,,,,,0,0,0,0,,,,,7,2,30,1,1958.7352047489985,None,j,0.37465473799966276,1958.8352390469954,None,1958.2349667129965,1958.6519734699978,1959.2354350530004,1959.735322927998,1959.2354350530004,None,0,0,32,None,None,16,001,exponential,ybgr,0.35-0.75,2021_May_20_1429,color_judgement_and_subjective_perception,2020.2.10,60.03605104778243,
3,0.35,testing,1000,1,,,,,,,,,0,0,0,0,,,,,7,3,31,3,1960.3356994619971,None,f,0.6941077939991374,1960.4356952579983,None,1959.8352747889949,1960.2522852690017,1961.1522983769974,1961.6524347009981,1961.1522983769974,None,18,6,0,None,None,16,001,exponential,ybgr,0.35-0.75,2021_May_20_1429,color_judgement_and_subjective_perception,2020.2.10,60.03605104778243,
3,0.35,testing,1000,1,,,,,,,,,0,0,0,0,,,,,8,0,32,3,1962.2526184279996,None,k,0.2734043460004614,1962.3524999820002,None,1961.7522496739984,1962.1692093870006,1962.6543249419992,1963.1368647179988,1962.6543249419992,None,20,7,0,None,None,16,001,exponential,ybgr,0.35-0.75,2021_May_20_1429,color_judgement_and_subjective_perception,2020.2.10,60.03605104778243,
0,0.35,testing,1000,1,,,,,,,,,0,0,0,0,,,,,8,1,33,0,1963.7369822779947,None,d,0.7089215400046669,1963.8369395119953,None,1963.2366376110003,1963.6534403990008,1964.5701838539972,1965.0704163400005,1964.5701838539972,None,47,47,0,None,None,16,001,exponential,ybgr,0.35-0.75,2021_May_20_1429,color_judgement_and_subjective_perception,2020.2.10,60.03605104778243,
3,0.35,testing,1000,1,,,,,,,,,0,0,0,0,,,,,8,2,34,3,1965.6706327119973,None,k,0.3752761659998214,1965.770589961001,None,1965.1702712789993,1965.5872195109987,1966.1704519609993,1966.6706534149998,1966.1704519609993,None,17,6,0,None,None,16,001,exponential,ybgr,0.35-0.75,2021_May_20_1429,color_judgement_and_subjective_perception,2020.2.10,60.03605104778243,
3,0.35,testing,1000,1,,,,,,,,,0,0,0,0,,,,,8,3,35,3,1967.2707271909967,None,d,0.13504991799709387,1967.3707985110013,None,1966.7704467799995,1967.1873567500006,1967.5391229899978,1968.0218075019948,1967.5391229899978,None,15,5,0,None,None,16,001,exponential,ybgr,0.35-0.75,2021_May_20_1429,color_judgement_and_subjective_perception,2020.2.10,60.03605104778243,
2,0.35,testing,1000,1,,,,,,,,,0,0,0,0,,,,,9,0,36,2,1968.6218857810018,None,k,0.696208517998457,1968.721664386001,None,1968.1214398469965,1968.5383778889955,1969.438405365996,1969.9387531030006,1969.438405365996,None,0,15,0,None,None,16,001,exponential,ybgr,0.35-0.75,2021_May_20_1429,color_judgement_and_subjective_perception,2020.2.10,60.03605104778243,
3,0.35,testing,1000,1,,,,,,,,,0,0,0,0,,,,,9,1,37,3,1970.538801144001,None,f,0.4910072130005574,1970.6388551810014,None,1970.0384835500008,1970.455458231001,1971.1553578120001,1971.6555788219994,1971.1553578120001,None,12,4,0,None,None,16,001,exponential,ybgr,0.35-0.75,2021_May_20_1429,color_judgement_and_subjective_perception,2020.2.10,60.03605104778243,
1,0.35,testing,1000,1,,,,,,,,,0,0,0,0,,,,,9,2,38,1,1972.2556783039981,None,None,-1,1972.355705848,None,1971.7554040870018,1972.1723529099982,1973.2574230419996,1973.7566884659973,1973.2574230419996,None,0,0,31,None,None,16,001,exponential,ybgr,0.35-0.75,2021_May_20_1429,color_judgement_and_subjective_perception,2020.2.10,60.03605104778243,
3,0.35,testing,1000,1,,,,,,,,,0,0,0,0,,,,,9,3,39,3,1974.3566266979979,None,k,0.34502598000108264,1974.4568686079947,None,1973.856485131997,1974.273354179997,1974.8250739829964,1975.3236785619956,1974.8250739829964,None,15,5,0,None,None,16,001,exponential,ybgr,0.35-0.75,2021_May_20_1429,color_judgement_and_subjective_perception,2020.2.10,60.03605104778243,
1,0.35,testing,1000,1,,,,,,,,,0,0,0,0,,,,,10,0,40,1,1975.9238412319974,None,k,0.33816758699686034,1976.023690684,None,1975.4235244750016,1975.8403102449956,1976.3917429009962,1976.8905250889948,1976.3917429009962,None,0,0,32,None,None,16,001,exponential,ybgr,0.35-0.75,2021_May_20_1429,color_judgement_and_subjective_perception,2020.2.10,60.03605104778243,
1,0.35,testing,1000,1,,,,,,,,,0,0,0,0,,,,,10,1,41,1,1977.4906387839947,None,f,0.29125987899897154,1977.5906341230002,None,1976.9903439100017,1977.407189188998,1977.908826414001,1978.3916051310007,1977.908826414001,None,0,0,34,None,None,16,001,exponential,ybgr,0.35-0.75,2021_May_20_1429,color_judgement_and_subjective_perception,2020.2.10,60.03605104778243,
3,0.35,testing,1000,1,,,,,,,,,0,0,0,0,,,,,10,2,42,3,1978.9916032999972,None,k,0.2542073980002897,1979.091660633996,None,1978.4913584640017,1978.9081286709988,1979.374857543,1979.875130761,1979.374857543,None,13,4,0,None,None,16,001,exponential,ybgr,0.35-0.75,2021_May_20_1429,color_judgement_and_subjective_perception,2020.2.10,60.03605104778243,
1,0.35,testing,1000,1,,,,,,,,,0,0,0,0,,,,,10,3,43,1,1980.4752247279976,None,f,0.2984146700036945,1980.5753897979957,None,1979.9749944659998,1980.3919155679978,1980.8918644649966,1981.3919368269999,1980.8918644649966,None,0,0,31,None,None,16,001,exponential,ybgr,0.35-0.75,2021_May_20_1429,color_judgement_and_subjective_perception,2020.2.10,60.03605104778243,
2,0.35,testing,1000,1,,,,,,,,,0,0,0,0,,,,,11,0,44,2,1981.9921254590008,None,k,0.34179437199782114,1982.0920679580013,None,1981.4918060109994,1981.9088633790016,1982.4604634610005,1982.9438557370013,1982.4604634610005,None,0,12,0,None,None,16,001,exponential,ybgr,0.35-0.75,2021_May_20_1429,color_judgement_and_subjective_perception,2020.2.10,60.03605104778243,
2,0.35,testing,1000,1,,,,,,,,,0,0,0,0,,,,,11,1,45,2,1983.5431316489994,None,f,0.5827014179958496,1983.643079870999,None,1983.0429389400015,1983.4598811519973,1984.2433004439954,1984.7433259019963,1984.2433004439954,None,0,12,0,None,None,16,001,exponential,ybgr,0.35-0.75,2021_May_20_1429,color_judgement_and_subjective_perception,2020.2.10,60.03605104778243,
3,0.35,testing,1000,1,,,,,,,,,0,0,0,0,,,,,11,2,46,3,1985.3435192399993,None,k,0.3424577690020669,1985.4434030449993,None,1984.8431578189993,1985.2601083510017,1985.8117786500006,1986.3102377359974,1985.8117786500006,None,8,3,0,None,None,16,001,exponential,ybgr,0.35-0.75,2021_May_20_1429,color_judgement_and_subjective_perception,2020.2.10,60.03605104778243,
1,0.35,testing,1000,1,,,,,,,,,0,0,0,0,,,,,11,3,47,1,1986.9103408279989,None,k,0.32748321600229247,1987.0102617899975,None,1986.4100917879987,1986.8269996160016,1987.3619161129973,1987.8604659659977,1987.3619161129973,None,0,0,26,None,None,16,001,exponential,ybgr,0.35-0.75,2021_May_20_1429,color_judgement_and_subjective_perception,2020.2.10,60.03605104778243,
0,0.35,testing,1000,1,,,,,,,,,0,0,0,0,,,,,12,0,48,0,1988.4448067749981,None,None,-1,1988.5448359599977,None,1987.9482764409986,1988.361274586001,1989.4618839629984,1989.9617455479965,1989.4618839629984,None,37,37,0,None,None,16,001,exponential,ybgr,0.35-0.75,2021_May_20_1429,color_judgement_and_subjective_perception,2020.2.10,60.03605104778243,
0,0.35,testing,1000,1,,,,,,,,,0,0,0,0,,,,,12,1,49,0,1990.5617505499977,None,d,0.32400029100244865,1990.6618631370002,None,1990.0614882629961,1990.4784299349994,1991.0132247039946,1991.5118394419987,1991.0132247039946,None,37,37,0,None,None,16,001,exponential,ybgr,0.35-0.75,2021_May_20_1429,color_judgement_and_subjective_perception,2020.2.10,60.03605104778243,
3,0.35,testing,1000,1,,,,,,,,,0,0,0,0,,,,,12,2,50,3,1992.1118855729947,None,d,0.24606207099714084,1992.2118687469992,None,1991.6117428669968,1992.0286603569984,1992.480074770996,1992.9629719689983,1992.480074770996,None,5,2,0,None,None,16,001,exponential,ybgr,0.35-0.75,2021_May_20_1429,color_judgement_and_subjective_perception,2020.2.10,60.03605104778243,
0,0.35,testing,1000,1,,,,,,,,,0,0,0,0,,,,,12,3,51,0,1993.563104392997,None,k,0.3548409930008347,1993.6630271959948,None,1993.0627563809976,1993.4795684769997,1994.0461703639958,1994.5463743619985,1994.0461703639958,None,36,36,0,None,None,16,001,exponential,ybgr,0.35-0.75,2021_May_20_1429,color_judgement_and_subjective_perception,2020.2.10,60.03605104778243,
2,0.35,testing,1000,1,,,,,,,,,0,0,0,0,,,,,13,0,52,2,1995.1465711049968,None,None,-1,1995.246520970999,None,1994.6462036019948,1995.063231002001,1996.1639297500005,1996.6634635969967,1996.1639297500005,None,0,12,0,None,None,16,001,exponential,ybgr,0.35-0.75,2021_May_20_1429,color_judgement_and_subjective_perception,2020.2.10,60.03605104778243,
3,0.35,testing,1000,1,,,,,,,,,0,0,0,0,,,,,13,1,53,3,1997.2635750409972,None,k,0.49426051000045845,1997.3634886719956,None,1996.7632389799983,1997.180157320996,1997.8816545500013,1998.3645805769993,1997.8816545500013,None,7,2,0,None,None,16,001,exponential,ybgr,0.35-0.75,2021_May_20_1429,color_judgement_and_subjective_perception,2020.2.10,60.03605104778243,
3,0.35,testing,1000,1,,,,,,,,,0,0,0,0,,,,,13,2,54,3,1998.9645314879963,None,k,0.48931793800147716,1999.064542727996,None,1998.4643065380005,1998.8812407709993,1999.5812665269987,2000.081534361001,1999.5812665269987,None,5,2,0,None,None,16,001,exponential,ybgr,0.35-0.75,2021_May_20_1429,color_judgement_and_subjective_perception,2020.2.10,60.03605104778243,
0,0.35,testing,1000,1,,,,,,,,,0,0,0,0,,,,,13,3,55,0,2000.6816214939972,None,None,-1,2000.7817293379994,None,2000.1813355990016,2000.5982864389953,2001.6987359749983,2002.1983749499996,2001.6987359749983,None,35,35,0,None,None,16,001,exponential,ybgr,0.35-0.75,2021_May_20_1429,color_judgement_and_subjective_perception,2020.2.10,60.03605104778243,
0,0.35,testing,1000,1,,,,,,,,,0,0,0,0,,,,,14,0,56,0,2002.7986558929988,None,d,0.2792313340032706,2002.8986442729947,None,2002.2983165369951,2002.7150605759962,2003.2009106650003,2003.6994367189982,2003.2009106650003,None,35,35,0,None,None,16,001,exponential,ybgr,0.35-0.75,2021_May_20_1429,color_judgement_and_subjective_perception,2020.2.10,60.03605104778243,
0,0.35,testing,1000,1,,,,,,,,,0,0,0,0,,,,,14,1,57,0,2004.2995452339965,None,d,0.3382859310004278,2004.3995384779992,None,2003.7993526749997,2004.2162421280009,2004.7661777629983,2005.2662760759995,2004.7661777629983,None,33,33,0,None,None,16,001,exponential,ybgr,0.35-0.75,2021_May_20_1429,color_judgement_and_subjective_perception,2020.2.10,60.03605104778243,
1,0.35,testing,1000,1,,,,,,,,,0,0,0,0,,,,,14,2,58,1,2005.8663300749977,None,None,-1,2005.9665243950003,None,2005.3663180779986,2005.7830057030005,2006.8837356239965,2007.3834867139958,2006.8837356239965,None,0,0,22,None,None,16,001,exponential,ybgr,0.35-0.75,2021_May_20_1429,color_judgement_and_subjective_perception,2020.2.10,60.03605104778243,
1,0.35,testing,1000,1,,,,,,,,,0,0,0,0,,,,,14,3,59,1,2007.9678064010004,None,f,0.021989158005453646,2008.067882231,None,2007.4831231079952,2007.8999536349947,2008.1191680970005,2008.6177850050008,2008.1191680970005,None,0,0,22,None,None,16,001,exponential,ybgr,0.35-0.75,2021_May_20_1429,color_judgement_and_subjective_perception,2020.2.10,60.03605104778243,
