color_idx_ind,target_acc,mode,response_deadline,block_number,trials_training.thisRepN,trials_training.thisTrialN,trials_training.thisN,trials_training.thisIndex,trials_training_deadline.thisRepN,trials_training_deadline.thisTrialN,trials_training_deadline.thisN,trials_training_deadline.thisIndex,blocks.thisRepN,blocks.thisTrialN,blocks.thisN,blocks.thisIndex,trials_staircase.thisRepN,trials_staircase.thisTrialN,trials_staircase.thisN,trials_staircase.thisIndex,trials.thisRepN,trials.thisTrialN,trials.thisN,trials.thisIndex,stimulus_ind.started,stimulus_ind.stopped,key_resp_ind.keys,key_resp_ind.rt,key_resp_ind.started,key_resp_ind.stopped,fixation_cross_1_ind.started,fixation_cross_1_ind.stopped,text.started,text.stopped,dummy_text.started,dummy_text.stopped,stim_ind_color_rgb_r,stim_ind_color_rgb_g,stim_ind_color_rgb_b,text_break_block.started,text_break_block.stopped,participant,session,accuracy_weighting,color_mapping,block_difficulties,date,expName,psychopyVersion,frameRate,
1,0.9,training,1000000000000,,0,0,0,0,,,,,,,,,,,,,,,,,308.14449810099904,None,f,1.2473667899976135,308.2445914619966,None,307.64801614599855,308.0610851040037,309.51320552999823,310.0113764909984,309.51320552999823,None,,,,,,17,001,exponential,bryg,0.75-0.35,2021_May_20_1559,color_judgement_and_subjective_perception,2020.2.10,60.01548567561281,
0,0.9,training,1000000000000,,0,1,1,1,,,,,,,,,,,,,,,,,310.611472331002,None,d,0.5963608310048585,310.7116158889985,None,310.11144260199944,310.5282333139985,311.3283114099977,311.8126632440035,311.3283114099977,None,,,,,,17,001,exponential,bryg,0.75-0.35,2021_May_20_1559,color_judgement_and_subjective_perception,2020.2.10,60.01548567561281,
1,0.9,training,1000000000000,,0,2,2,2,,,,,,,,,,,,,,,,,312.4127165730024,None,f,0.44330586500291247,312.51266318099806,None,311.9126263560029,312.329321969999,312.9793502090033,313.47944331000326,312.9793502090033,None,,,,,,17,001,exponential,bryg,0.75-0.35,2021_May_20_1559,color_judgement_and_subjective_perception,2020.2.10,60.01548567561281,
2,0.9,training,1000000000000,,0,3,3,3,,,,,,,,,,,,,,,,,314.0796436820019,None,j,1.144298177001474,314.17958050499874,None,313.57953794700006,313.9962929090034,315.34629703799874,315.8465368210018,315.34629703799874,None,,,,,,17,001,exponential,bryg,0.75-0.35,2021_May_20_1559,color_judgement_and_subjective_perception,2020.2.10,60.01548567561281,
1,0.9,training,1000000000000,,0,4,4,4,,,,,,,,,,,,,,,,,316.4453467420026,None,f,0.7610069779984769,316.53086831600376,None,315.9464040849998,316.36332235600275,317.3141609079976,317.8142704089987,317.3141609079976,None,,,,,,17,001,exponential,bryg,0.75-0.35,2021_May_20_1559,color_judgement_and_subjective_perception,2020.2.10,60.01548567561281,
2,0.9,training,1000000000000,,0,5,5,5,,,,,,,,,,,,,,,,,318.41442277900205,None,j,0.8734869439940667,318.5144792659994,None,317.9142027679991,318.33107984100207,319.41448133499944,319.91457131900097,319.41448133499944,None,,,,,,17,001,exponential,bryg,0.75-0.35,2021_May_20_1559,color_judgement_and_subjective_perception,2020.2.10,60.01548567561281,
3,0.9,training,1000000000000,,0,6,6,6,,,,,,,,,,,,,,,,,320.5146283380018,None,k,0.4932771909952862,320.614668592003,None,320.0144817850014,320.431396082,321.13140429399937,321.6157430739986,321.13140429399937,None,,,,,,17,001,exponential,bryg,0.75-0.35,2021_May_20_1559,color_judgement_and_subjective_perception,2020.2.10,60.01548567561281,
2,0.9,training,1000000000000,,0,7,7,7,,,,,,,,,,,,,,,,,322.2157302889973,None,j,1.5921745379964705,322.31578523600183,None,321.71575513300195,322.1326197009985,323.9327538580037,324.4328533730004,323.9327538580037,None,,,,,,17,001,exponential,bryg,0.75-0.35,2021_May_20_1559,color_judgement_and_subjective_perception,2020.2.10,60.01548567561281,
0,0.9,training,1000000000000,,0,8,8,8,,,,,,,,,,,,,,,,,325.03290657100297,None,d,0.9990600059973076,325.13287938400026,None,324.53273813000123,324.94954325899744,326.14955987699796,326.63389451699913,326.14955987699796,None,,,,,,17,001,exponential,bryg,0.75-0.35,2021_May_20_1559,color_judgement_and_subjective_perception,2020.2.10,60.01548567561281,
2,0.9,training,1000000000000,,0,9,9,9,,,,,,,,,,,,,,,,,327.2340543750033,None,j,2.214022277003096,327.3339376829972,None,326.73384796800383,327.15061384800356,329.5676905910004,330.0678179500028,329.5676905910004,None,,,,,,17,001,exponential,bryg,0.75-0.35,2021_May_20_1559,color_judgement_and_subjective_perception,2020.2.10,60.01548567561281,
1,0.9,training,1000000000000,,0,10,10,10,,,,,,,,,,,,,,,,,330.66785654800333,None,f,0.908092645004217,330.7678742510034,None,330.1677435399979,330.58456438899884,331.70221514700097,332.20225983000273,331.70221514700097,None,,,,,,17,001,exponential,bryg,0.75-0.35,2021_May_20_1559,color_judgement_and_subjective_perception,2020.2.10,60.01548567561281,
3,0.9,training,1000000000000,,0,11,11,11,,,,,,,,,,,,,,,,,332.80240145399875,None,k,0.6136147819997859,332.9023619889995,None,332.30222377800237,332.71909392900125,333.5357291859982,334.0359768929993,333.5357291859982,None,,,,,,17,001,exponential,bryg,0.75-0.35,2021_May_20_1559,color_judgement_and_subjective_perception,2020.2.10,60.01548567561281,
2,0.9,training,1000000000000,,0,12,12,12,,,,,,,,,,,,,,,,,334.6360173569992,None,j,0.4998456560060731,334.73608205700293,None,334.1359466130016,334.5525870709971,335.2526429130012,335.75286081700324,335.2526429130012,None,,,,,,17,001,exponential,bryg,0.75-0.35,2021_May_20_1559,color_judgement_and_subjective_perception,2020.2.10,60.01548567561281,
3,0.9,training,1000000000000,,0,13,13,13,,,,,,,,,,,,,,,,,336.3529199120021,None,k,0.9203010749988607,336.45163379600126,None,335.8528323999999,336.2695220949972,337.40373755300243,337.90398549399833,337.40373755300243,None,,,,,,17,001,exponential,bryg,0.75-0.35,2021_May_20_1559,color_judgement_and_subjective_perception,2020.2.10,60.01548567561281,
1,0.9,training,1000000000000,,0,14,14,14,,,,,,,,,,,,,,,,,338.50401116200374,None,f,0.5918433309998363,338.6041044279991,None,338.0038041480002,338.42071173599834,339.2208973540037,339.7208396510032,339.2208973540037,None,,,,,,17,001,exponential,bryg,0.75-0.35,2021_May_20_1559,color_judgement_and_subjective_perception,2020.2.10,60.01548567561281,
3,0.9,training,1000000000000,,0,15,15,15,,,,,,,,,,,,,,,,,340.32107531699876,None,k,1.2390092229979928,340.4209695840036,None,339.82094225999754,340.2376238400029,341.6887624840019,342.1887298069996,341.6887624840019,None,,,,,,17,001,exponential,bryg,0.75-0.35,2021_May_20_1559,color_judgement_and_subjective_perception,2020.2.10,60.01548567561281,
2,0.9,training,1000000000000,,0,16,16,16,,,,,,,,,,,,,,,,,342.7888109650012,None,j,0.7231409439991694,342.88879621199885,None,342.28871027399873,342.70562057200004,343.63893129200005,344.1389669350028,343.63893129200005,None,,,,,,17,001,exponential,bryg,0.75-0.35,2021_May_20_1559,color_judgement_and_subjective_perception,2020.2.10,60.01548567561281,
1,0.9,training,1000000000000,,0,17,17,17,,,,,,,,,,,,,,,,,344.7390741909985,None,f,0.7730204510007752,344.8388373810012,None,344.23886699399736,344.6559073030003,345.639243575999,346.1394125070001,345.639243575999,None,,,,,,17,001,exponential,bryg,0.75-0.35,2021_May_20_1559,color_judgement_and_subjective_perception,2020.2.10,60.01548567561281,
0,0.9,training,1000000000000,,0,18,18,18,,,,,,,,,,,,,,,,,346.7236305230035,None,d,0.6282730759994593,346.82368284100085,None,346.2394453529996,346.64032223100367,347.4736157599982,347.9738766320006,347.4736157599982,None,,,,,,17,001,exponential,bryg,0.75-0.35,2021_May_20_1559,color_judgement_and_subjective_perception,2020.2.10,60.01548567561281,
3,0.9,training,1000000000000,,0,19,19,19,,,,,,,,,,,,,,,,,348.5738768200026,None,k,0.8419711060050759,348.67399553400173,None,348.0737221599993,348.4907027980007,349.54074597,350.0409202860028,349.54074597,None,,,,,,17,001,exponential,bryg,0.75-0.35,2021_May_20_1559,color_judgement_and_subjective_perception,2020.2.10,60.01548567561281,
0,0.9,training,1000000000000,,0,20,20,20,,,,,,,,,,,,,,,,,350.64088588800223,None,d,0.49503106400516117,350.740906058003,None,350.1407780579975,350.55756726000254,351.25750570100354,351.7420009139969,351.25750570100354,None,,,,,,17,001,exponential,bryg,0.75-0.35,2021_May_20_1559,color_judgement_and_subjective_perception,2020.2.10,60.01548567561281,
1,0.9,training,1000000000000,,0,21,21,21,,,,,,,,,,,,,,,,,352.34194237799966,None,f,0.7219409969984554,352.4420219379972,None,351.8418255189972,352.25840689399774,353.1919349719974,353.69225605599786,353.1919349719974,None,,,,,,17,001,exponential,bryg,0.75-0.35,2021_May_20_1559,color_judgement_and_subjective_perception,2020.2.10,60.01548567561281,
0,0.9,training,1000000000000,,0,22,22,22,,,,,,,,,,,,,,,,,354.2924543729969,None,d,0.9716639750040486,354.39228292400367,None,353.79211164700246,354.20894884099835,355.39224428300076,355.89244915900053,355.39224428300076,None,,,,,,17,001,exponential,bryg,0.75-0.35,2021_May_20_1559,color_judgement_and_subjective_perception,2020.2.10,60.01548567561281,
1,0.9,training,1000000000000,,0,23,23,23,,,,,,,,,,,,,,,,,356.4773586800002,None,f,0.8269880430016201,356.57690758699755,None,355.9924262889981,356.40921945500304,357.42671886600147,357.926923316998,357.42671886600147,None,,,,,,17,001,exponential,bryg,0.75-0.35,2021_May_20_1559,color_judgement_and_subjective_perception,2020.2.10,60.01548567561281,
0,0.9,training,1000000000000,,0,24,24,24,,,,,,,,,,,,,,,,,358.5271241570008,None,d,0.5046964080029284,358.62723258900223,None,358.0269014989972,358.4435764880036,359.16036147299747,359.66047501799767,359.16036147299747,None,,,,,,17,001,exponential,bryg,0.75-0.35,2021_May_20_1559,color_judgement_and_subjective_perception,2020.2.10,60.01548567561281,
3,0.9,training,1000000000000,,0,25,25,25,,,,,,,,,,,,,,,,,360.26063187699765,None,k,1.235313204000704,360.3605764439999,None,359.7605199460013,360.1772878499978,361.6282326560031,362.1286012790006,361.6282326560031,None,,,,,,17,001,exponential,bryg,0.75-0.35,2021_May_20_1559,color_judgement_and_subjective_perception,2020.2.10,60.01548567561281,
2,0.9,training,1000000000000,,0,26,26,26,,,,,,,,,,,,,,,,,362.7285628410027,None,f,0.5672896779942675,362.8286050759998,None,362.22838207000314,362.6450885700033,363.42859083499934,363.92877868500364,363.42859083499934,None,,,,,,17,001,exponential,bryg,0.75-0.35,2021_May_20_1559,color_judgement_and_subjective_perception,2020.2.10,60.01548567561281,
3,0.9,training,1000000000000,,0,27,27,27,,,,,,,,,,,,,,,,,364.5288490210005,None,k,1.1830672939977376,364.62889504399936,None,364.02872301299794,364.4457009820035,365.8288313209996,366.32904285399854,365.8288313209996,None,,,,,,17,001,exponential,bryg,0.75-0.35,2021_May_20_1559,color_judgement_and_subjective_perception,2020.2.10,60.01548567561281,
0,0.9,training,1000000000000,,0,28,28,28,,,,,,,,,,,,,,,,,366.9131807829981,None,d,0.7027759889970184,367.0131640909967,None,366.4290486020036,366.83005855199735,367.74658560899843,368.2468477579969,367.74658560899843,None,,,,,,17,001,exponential,bryg,0.75-0.35,2021_May_20_1559,color_judgement_and_subjective_perception,2020.2.10,60.01548567561281,
3,0.9,training,1000000000000,,0,29,29,29,,,,,,,,,,,,,,,,,368.84703963899665,None,k,1.3528195030012284,368.9471246710018,None,368.3467701749978,368.7635990810013,370.33043705899763,370.83071606400335,370.33043705899763,None,,,,,,17,001,exponential,bryg,0.75-0.35,2021_May_20_1559,color_judgement_and_subjective_perception,2020.2.10,60.01548567561281,
2,0.9,training,1000000000000,,0,30,30,30,,,,,,,,,,,,,,,,,371.4306640540017,None,j,2.6489593500009505,371.5150392689975,None,370.9303680610028,371.3473579650017,374.18177449799987,374.6821945760021,374.18177449799987,None,,,,,,17,001,exponential,bryg,0.75-0.35,2021_May_20_1559,color_judgement_and_subjective_perception,2020.2.10,60.01548567561281,
0,0.9,training,1000000000000,,0,31,31,31,,,,,,,,,,,,,,,,,375.28212390599947,None,d,0.5018932780003524,375.38207559200237,None,374.78182769100385,375.1987713609997,375.9154372760022,376.4154459499987,375.9154372760022,None,,,,,,17,001,exponential,bryg,0.75-0.35,2021_May_20_1559,color_judgement_and_subjective_perception,2020.2.10,60.01548567561281,
3,0.9,training,1000,,,,,,0,0,0,0,,,,,,,,,,,,,381.4504444769991,None,k,0.8852448220059159,381.5347068600022,None,380.95276635199843,381.3671630489989,382.45171108700015,382.9516109640026,382.45171108700015,None,,,,,,17,001,exponential,bryg,0.75-0.35,2021_May_20_1559,color_judgement_and_subjective_perception,2020.2.10,60.01548567561281,
2,0.9,training,1000,,,,,,0,1,1,1,,,,,,,,,,,,,383.5516624149968,None,j,0.44826327900227625,383.6516971969977,None,383.0514897769972,383.46827080599905,384.1183530280032,384.6184726499996,384.1183530280032,None,,,,,,17,001,exponential,bryg,0.75-0.35,2021_May_20_1559,color_judgement_and_subjective_perception,2020.2.10,60.01548567561281,
3,0.9,training,1000,,,,,,0,2,2,2,,,,,,,,,,,,,385.2184878699991,None,k,0.3413977839954896,385.3185347339968,None,384.7185242389969,385.1351752949995,385.6849921009998,386.1855064850024,385.6849921009998,None,,,,,,17,001,exponential,bryg,0.75-0.35,2021_May_20_1559,color_judgement_and_subjective_perception,2020.2.10,60.01548567561281,
0,0.9,training,1000,,,,,,0,3,3,3,,,,,,,,,,,,,386.7698294619986,None,d,0.36640548599825706,386.8695654070034,None,386.2852860299972,386.686327686999,387.252875913,387.75307799800066,387.252875913,None,,,,,,17,001,exponential,bryg,0.75-0.35,2021_May_20_1559,color_judgement_and_subjective_perception,2020.2.10,60.01548567561281,
2,0.9,training,1000,,,,,,0,4,4,4,,,,,,,,,,,,,388.35309867699834,None,k,0.5588259189971723,388.45312415600347,None,387.85308850800357,388.2698123099981,389.03661128100066,389.5366530320025,389.03661128100066,None,,,,,,17,001,exponential,bryg,0.75-0.35,2021_May_20_1559,color_judgement_and_subjective_perception,2020.2.10,60.01548567561281,
0,0.9,training,1000,,,,,,0,5,5,5,,,,,,,,,,,,,390.13677607799764,None,d,0.5751118129992392,390.2368397090031,None,389.6366595299987,390.05339392599853,390.8365102259995,391.33694791999733,390.8365102259995,None,,,,,,17,001,exponential,bryg,0.75-0.35,2021_May_20_1559,color_judgement_and_subjective_perception,2020.2.10,60.01548567561281,
3,0.9,training,1000,,,,,,0,6,6,6,,,,,,,,,,,,,391.92126653000014,None,None,-1,392.02131295300205,None,391.4369012149982,391.8379830959966,392.93779304299824,393.4381451349982,392.93779304299824,None,,,,,,17,001,exponential,bryg,0.75-0.35,2021_May_20_1559,color_judgement_and_subjective_perception,2020.2.10,60.01548567561281,
0,0.9,training,1000,,,,,,0,7,7,7,,,,,,,,,,,,,394.03825924600096,None,d,0.47365365600126097,394.13827812600357,None,393.53799235099723,393.95480351900187,394.6382322470017,395.13831372999994,394.6382322470017,None,,,,,,17,001,exponential,bryg,0.75-0.35,2021_May_20_1559,color_judgement_and_subjective_perception,2020.2.10,60.01548567561281,
3,0.9,training,1000,,,,,,0,8,8,8,,,,,,,,,,,,,395.73843935199693,None,k,0.36553411500062793,395.8383969330025,None,395.23831898999924,395.65519263400347,396.2216665809974,396.7061710670023,396.2216665809974,None,,,,,,17,001,exponential,bryg,0.75-0.35,2021_May_20_1559,color_judgement_and_subjective_perception,2020.2.10,60.01548567561281,
1,0.9,training,1000,,,,,,0,9,9,9,,,,,,,,,,,,,397.30606880199775,None,f,0.5257350440006121,397.40621086199826,None,396.80612269399717,397.2226591439976,397.9560734109982,398.45633613300015,397.9560734109982,None,,,,,,17,001,exponential,bryg,0.75-0.35,2021_May_20_1559,color_judgement_and_subjective_perception,2020.2.10,60.01548567561281,
2,0.9,training,1000,,,,,,0,10,10,10,,,,,,,,,,,,,399.056490201001,None,None,-1,399.1565139969971,None,398.5563170509995,398.9731967859989,400.07308843499777,400.57327025799896,400.07308843499777,None,,,,,,17,001,exponential,bryg,0.75-0.35,2021_May_20_1559,color_judgement_and_subjective_perception,2020.2.10,60.01548567561281,
0,0.9,training,1000,,,,,,0,11,11,11,,,,,,,,,,,,,401.17337681599747,None,d,0.6025056409998797,401.27345554099884,None,400.673162002,401.09005904399964,401.90750262200163,402.407698048999,401.90750262200163,None,,,,,,17,001,exponential,bryg,0.75-0.35,2021_May_20_1559,color_judgement_and_subjective_perception,2020.2.10,60.01548567561281,
2,0.9,training,1000,,,,,,0,12,12,12,,,,,,,,,,,,,403.0077038770032,None,j,0.45616511100524804,403.1078000100024,None,402.50765410500026,402.9244373490001,403.59124591,404.0915865999996,403.59124591,None,,,,,,17,001,exponential,bryg,0.75-0.35,2021_May_20_1559,color_judgement_and_subjective_perception,2020.2.10,60.01548567561281,
1,0.9,training,1000,,,,,,0,13,13,13,,,,,,,,,,,,,404.69149272399954,None,f,0.49243042200396303,404.7915357930033,None,404.1913942280007,404.6079396139976,405.3079410520004,405.80818808599724,405.3079410520004,None,,,,,,17,001,exponential,bryg,0.75-0.35,2021_May_20_1559,color_judgement_and_subjective_perception,2020.2.10,60.01548567561281,
3,0.9,training,1000,,,,,,0,14,14,14,,,,,,,,,,,,,406.40858333699725,None,k,0.815041359004681,406.4929388439996,None,405.9081999370028,406.32481172199914,407.3257619490032,407.8259879660036,407.3257619490032,None,,,,,,17,001,exponential,bryg,0.75-0.35,2021_May_20_1559,color_judgement_and_subjective_perception,2020.2.10,60.01548567561281,
1,0.9,training,1000,,,,,,0,15,15,15,,,,,,,,,,,,,408.426119593998,None,f,0.6217767019988969,408.52618843500386,None,407.92592095500004,408.34284744300385,409.17616783599806,409.6763858569975,409.17616783599806,None,,,,,,17,001,exponential,bryg,0.75-0.35,2021_May_20_1559,color_judgement_and_subjective_perception,2020.2.10,60.01548567561281,
2,0.9,training,1000,,,,,,0,16,16,16,,,,,,,,,,,,,410.2763262399967,None,k,0.6594464500012691,410.3765173189968,None,409.776386147998,410.19310285199754,411.0597146220025,411.54424327499873,411.0597146220025,None,,,,,,17,001,exponential,bryg,0.75-0.35,2021_May_20_1559,color_judgement_and_subjective_perception,2020.2.10,60.01548567561281,
0,0.9,training,1000,,,,,,0,17,17,17,,,,,,,,,,,,,412.1442698899991,None,d,0.48772139699576655,412.24426454700006,None,411.64411485599703,412.06103425699985,412.76074892999895,413.26107734299876,412.76074892999895,None,,,,,,17,001,exponential,bryg,0.75-0.35,2021_May_20_1559,color_judgement_and_subjective_perception,2020.2.10,60.01548567561281,
3,0.9,training,1000,,,,,,0,18,18,18,,,,,,,,,,,,,413.8611688059973,None,j,0.6506678500009002,413.9612244279997,None,413.3609984499999,413.7779744060026,414.6444694699967,415.144620400999,414.6444694699967,None,,,,,,17,001,exponential,bryg,0.75-0.35,2021_May_20_1559,color_judgement_and_subjective_perception,2020.2.10,60.01548567561281,
1,0.9,training,1000,,,,,,0,19,19,19,,,,,,,,,,,,,415.74478640899906,None,f,0.5510951920005027,415.8448636039975,None,415.2446987509975,415.6614068409981,416.4280674210022,416.9123983449972,416.4280674210022,None,,,,,,17,001,exponential,bryg,0.75-0.35,2021_May_20_1559,color_judgement_and_subjective_perception,2020.2.10,60.01548567561281,
3,0.9,training,1000,,,,,,0,20,20,20,,,,,,,,,,,,,417.5124683519971,None,k,0.4555110350047471,417.61242958899675,None,417.01224065099814,417.42918915000337,418.0957244279998,418.59610257200256,418.0957244279998,None,,,,,,17,001,exponential,bryg,0.75-0.35,2021_May_20_1559,color_judgement_and_subjective_perception,2020.2.10,60.01548567561281,
1,0.9,training,1000,,,,,,0,21,21,21,,,,,,,,,,,,,419.1960276989994,None,f,0.7156771700028912,419.29628599999705,None,418.69608242699906,419.11288705000334,420.02946804399835,420.52961471099843,420.02946804399835,None,,,,,,17,001,exponential,bryg,0.75-0.35,2021_May_20_1559,color_judgement_and_subjective_perception,2020.2.10,60.01548567561281,
2,0.9,training,1000,,,,,,0,22,22,22,,,,,,,,,,,,,421.129657411002,None,j,0.4702594219997991,421.22970283799805,None,420.6295057410025,421.0464741530013,421.7306677059969,422.23074059400096,421.7306677059969,None,,,,,,17,001,exponential,bryg,0.75-0.35,2021_May_20_1559,color_judgement_and_subjective_perception,2020.2.10,60.01548567561281,
3,0.9,training,1000,,,,,,0,23,23,23,,,,,,,,,,,,,422.8308039550029,None,k,0.7370517500021379,422.93091497899877,None,422.3308333370005,422.7475135600034,423.69740000500315,424.1978323650037,423.69740000500315,None,,,,,,17,001,exponential,bryg,0.75-0.35,2021_May_20_1559,color_judgement_and_subjective_perception,2020.2.10,60.01548567561281,
1,0.9,training,1000,,,,,,0,24,24,24,,,,,,,,,,,,,424.79774739500135,None,f,0.4741549500031397,424.8978144540015,None,424.29771107200213,424.71464765199926,425.39762645400333,425.897924486002,425.39762645400333,None,,,,,,17,001,exponential,bryg,0.75-0.35,2021_May_20_1559,color_judgement_and_subjective_perception,2020.2.10,60.01548567561281,
0,0.9,training,1000,,,,,,0,25,25,25,,,,,,,,,,,,,426.48937362200377,None,d,0.4938303220042144,426.58213950900245,None,425.9978234809969,426.41472952200274,427.09882766399824,427.59902876900014,427.09882766399824,None,,,,,,17,001,exponential,bryg,0.75-0.35,2021_May_20_1559,color_judgement_and_subjective_perception,2020.2.10,60.01548567561281,
2,0.9,training,1000,,,,,,0,26,26,26,,,,,,,,,,,,,428.19910527900356,None,k,0.616842228002497,428.2991502299992,None,427.6988460680004,428.11574583699985,428.9322302330038,429.43266833399684,428.9322302330038,None,,,,,,17,001,exponential,bryg,0.75-0.35,2021_May_20_1559,color_judgement_and_subjective_perception,2020.2.10,60.01548567561281,
3,0.9,training,1000,,,,,,0,27,27,27,,,,,,,,,,,,,430.0327661400006,None,k,0.5751272709967452,430.13283585500176,None,429.53267331499956,429.94939578499907,430.73272765,431.23294230699685,430.73272765,None,,,,,,17,001,exponential,bryg,0.75-0.35,2021_May_20_1559,color_judgement_and_subjective_perception,2020.2.10,60.01548567561281,
2,0.9,training,1000,,,,,,0,28,28,28,,,,,,,,,,,,,431.8171588780024,None,j,0.5666617290044087,431.9172171760001,None,431.33291566999833,431.7338993000012,432.50046626100084,433.0005970209968,432.50046626100084,None,,,,,,17,001,exponential,bryg,0.75-0.35,2021_May_20_1559,color_judgement_and_subjective_perception,2020.2.10,60.01548567561281,
1,0.9,training,1000,,,,,,0,29,29,29,,,,,,,,,,,,,433.6009454840023,None,d,0.3271350209979573,433.7008634369995,None,433.1006544499978,433.5173810109991,434.05077674600034,434.5510015050022,434.05077674600034,None,,,,,,17,001,exponential,bryg,0.75-0.35,2021_May_20_1559,color_judgement_and_subjective_perception,2020.2.10,60.01548567561281,
0,0.9,training,1000,,,,,,0,30,30,30,,,,,,,,,,,,,435.151058098003,None,d,0.7768958829983603,435.25107191900315,None,434.6508595530031,435.0674474480038,436.05102718000126,436.5354386100007,436.05102718000126,None,,,,,,17,001,exponential,bryg,0.75-0.35,2021_May_20_1559,color_judgement_and_subjective_perception,2020.2.10,60.01548567561281,
1,0.9,training,1000,,,,,,0,31,31,31,,,,,,,,,,,,,437.13539673200285,None,f,0.5205344560017693,437.23540384700027,None,436.63536472000123,437.0520783430038,437.78534597699763,438.28559774000314,437.78534597699763,None,,,,,,17,001,exponential,bryg,0.75-0.35,2021_May_20_1559,color_judgement_and_subjective_perception,2020.2.10,60.01548567561281,
3,0.9,training,1000,,,,,,0,32,32,32,,,,,,,,,,,,,438.88572287900024,None,k,0.5220437099997071,438.9859197409969,None,438.38554988700344,438.80242700799863,439.5356617580037,440.03583114399953,439.5356617580037,None,,,,,,17,001,exponential,bryg,0.75-0.35,2021_May_20_1559,color_judgement_and_subjective_perception,2020.2.10,60.01548567561281,
0,0.9,training,1000,,,,,,0,33,33,33,,,,,,,,,,,,,440.63589871300064,None,d,0.6359248489970923,440.7360390629983,None,440.13586048100115,440.5525142330007,441.4025725410029,441.8871654859977,441.4025725410029,None,,,,,,17,001,exponential,bryg,0.75-0.35,2021_May_20_1559,color_judgement_and_subjective_perception,2020.2.10,60.01548567561281,
1,0.9,training,1000,,,,,,0,34,34,34,,,,,,,,,,,,,442.48709389600117,None,f,0.5928157300004386,442.58714833200065,None,441.9870212140013,442.40367769300065,443.20379062499705,443.7039015600021,443.20379062499705,None,,,,,,17,001,exponential,bryg,0.75-0.35,2021_May_20_1559,color_judgement_and_subjective_perception,2020.2.10,60.01548567561281,
2,0.9,training,1000,,,,,,0,35,35,35,,,,,,,,,,,,,444.3042141620026,None,k,0.5198745550005697,444.4040888230011,None,443.8040103780004,444.2207064730028,444.95405590599694,445.4542758769967,444.95405590599694,None,,,,,,17,001,exponential,bryg,0.75-0.35,2021_May_20_1559,color_judgement_and_subjective_perception,2020.2.10,60.01548567561281,
1,0.9,training,1000,,,,,,0,36,36,36,,,,,,,,,,,,,446.05440338500193,None,f,0.6496962990058819,446.15426609099814,None,445.55422564600303,445.9708490749981,446.82190770500165,447.32211344999814,446.82190770500165,None,,,,,,17,001,exponential,bryg,0.75-0.35,2021_May_20_1559,color_judgement_and_subjective_perception,2020.2.10,60.01548567561281,
3,0.9,training,1000,,,,,,0,37,37,37,,,,,,,,,,,,,447.92200697000226,None,None,-1,448.0218868680022,None,447.42198765800276,447.83878742899833,448.9387773530034,449.4390561120017,448.9387773530034,None,,,,,,17,001,exponential,bryg,0.75-0.35,2021_May_20_1559,color_judgement_and_subjective_perception,2020.2.10,60.01548567561281,
0,0.9,training,1000,,,,,,0,38,38,38,,,,,,,,,,,,,450.03908730999683,None,None,-1,450.1389056550033,None,449.53892428600375,449.9557307389987,451.05581068099855,451.5400937759987,451.05581068099855,None,,,,,,17,001,exponential,bryg,0.75-0.35,2021_May_20_1559,color_judgement_and_subjective_perception,2020.2.10,60.01548567561281,
1,0.9,training,1000,,,,,,0,39,39,39,,,,,,,,,,,,,452.1400984779975,None,f,0.46790282200527145,452.24003488699964,None,451.6401525559995,452.05692159799946,452.7400617910025,453.2402340819972,452.7400617910025,None,,,,,,17,001,exponential,bryg,0.75-0.35,2021_May_20_1559,color_judgement_and_subjective_perception,2020.2.10,60.01548567561281,
2,0.9,training,1000,,,,,,0,40,40,40,,,,,,,,,,,,,453.8405292390016,None,j,0.38327400400157785,453.94060582000384,None,453.34027709800284,453.7571925520024,454.3402962359978,454.84059241400246,454.3402962359978,None,,,,,,17,001,exponential,bryg,0.75-0.35,2021_May_20_1559,color_judgement_and_subjective_perception,2020.2.10,60.01548567561281,
0,0.9,training,1000,,,,,,0,41,41,41,,,,,,,,,,,,,455.44058022800164,None,d,0.49526087099366123,455.5406845440011,None,454.9405569779992,455.3572539020024,456.0574254009989,456.54175124099856,456.0574254009989,None,,,,,,17,001,exponential,bryg,0.75-0.35,2021_May_20_1559,color_judgement_and_subjective_perception,2020.2.10,60.01548567561281,
2,0.9,training,1000,,,,,,0,42,42,42,,,,,,,,,,,,,457.1417205969992,None,j,0.45027275000029476,457.241621758003,None,456.6417005350013,457.05840700700355,457.7249709430034,458.22520743199857,457.7249709430034,None,,,,,,17,001,exponential,bryg,0.75-0.35,2021_May_20_1559,color_judgement_and_subjective_perception,2020.2.10,60.01548567561281,
3,0.9,training,1000,,,,,,0,43,43,43,,,,,,,,,,,,,458.82550189799804,None,k,0.37458607600274263,458.925379950997,None,458.3252860799985,458.7419768499967,459.3253449640033,459.8256482029974,459.3253449640033,None,,,,,,17,001,exponential,bryg,0.75-0.35,2021_May_20_1559,color_judgement_and_subjective_perception,2020.2.10,60.01548567561281,
0,0.9,training,1000,,,,,,0,44,44,44,,,,,,,,,,,,,460.42554820900114,None,d,0.3504768709972268,460.5254277720014,None,459.9254294580023,460.34231939599704,460.90879767000297,461.40898871300305,460.90879767000297,None,,,,,,17,001,exponential,bryg,0.75-0.35,2021_May_20_1559,color_judgement_and_subjective_perception,2020.2.10,60.01548567561281,
1,0.9,training,1000,,,,,,0,45,45,45,,,,,,,,,,,,,461.99338294399786,None,f,0.5984895279980265,462.09339749599894,None,461.50165162899793,461.91013653600385,462.7099497550007,463.20999731300253,462.7099497550007,None,,,,,,17,001,exponential,bryg,0.75-0.35,2021_May_20_1559,color_judgement_and_subjective_perception,2020.2.10,60.01548567561281,
2,0.9,training,1000,,,,,,0,46,46,46,,,,,,,,,,,,,463.7937559569982,None,k,0.5102480790010304,463.8936954689998,None,463.2934569279969,463.7104082509977,464.4269004430025,464.82000517800043,464.4269004430025,None,,,,,,17,001,exponential,bryg,0.75-0.35,2021_May_20_1559,color_judgement_and_subjective_perception,2020.2.10,60.01548567561281,
0,0.9,training,1000,,,,,,0,47,47,47,,,,,,,,,,,,,465.16832654800237,None,None,-1,465.22550392200355,None,464.87857042199903,465.1199517060013,465.750220711001,466.1940329190038,465.750220711001,None,,,,,,17,001,exponential,bryg,0.75-0.35,2021_May_20_1559,color_judgement_and_subjective_perception,2020.2.10,60.01548567561281,
1,0.9,training,1000,,,,,,0,48,48,48,,,,,,,,,,,,,466.77815392499906,None,f,0.31769206799799576,466.8781824149992,None,466.29398221500014,466.69470208299754,467.2281366719981,467.72832415599987,467.2281366719981,None,,,,,,17,001,exponential,bryg,0.75-0.35,2021_May_20_1559,color_judgement_and_subjective_perception,2020.2.10,60.01548567561281,
2,0.9,training,1000,,,,,,0,49,49,49,,,,,,,,,,,,,468.32835167000303,None,k,0.45555250200413866,468.42840059899754,None,467.82825228800357,468.24504090999835,468.91165307199844,469.41196377600136,468.91165307199844,None,,,,,,17,001,exponential,bryg,0.75-0.35,2021_May_20_1559,color_judgement_and_subjective_perception,2020.2.10,60.01548567561281,
0,0.9,training,1000,,,,,,0,50,50,50,,,,,,,,,,,,,470.0119596020013,None,d,0.3399321519973455,470.11200768600247,None,469.51193553600024,469.92880218700157,470.4784763339994,470.97885180400044,470.4784763339994,None,,,,,,17,001,exponential,bryg,0.75-0.35,2021_May_20_1559,color_judgement_and_subjective_perception,2020.2.10,60.01548567561281,
0,0.9,training,1000,,,,,,0,51,51,51,,,,,,,,,,,,,471.5631757709998,None,f,0.41291827100212686,471.6630577429969,None,471.07888772000297,471.494388238003,472.0964458390008,472.59643045900157,472.0964458390008,None,,,,,,17,001,exponential,bryg,0.75-0.35,2021_May_20_1559,color_judgement_and_subjective_perception,2020.2.10,60.01548567561281,
0,0.9,training,1000,,,,,,0,52,52,52,,,,,,,,,,,,,473.1965985869974,None,d,0.3633059290004894,473.29666388699843,None,472.6964257840009,473.1131873659979,473.67988441500347,474.18030709600134,473.67988441500347,None,,,,,,17,001,exponential,bryg,0.75-0.35,2021_May_20_1559,color_judgement_and_subjective_perception,2020.2.10,60.01548567561281,
1,0.9,training,1000,,,,,,0,53,53,53,,,,,,,,,,,,,474.78031287900376,None,f,0.29172183299669996,474.8802452210002,None,474.2802045089993,474.69703941800253,475.19689160899725,475.6970859139983,475.19689160899725,None,,,,,,17,001,exponential,bryg,0.75-0.35,2021_May_20_1559,color_judgement_and_subjective_perception,2020.2.10,60.01548567561281,
2,0.9,training,1000,,,,,,0,54,54,54,,,,,,,,,,,,,476.2971437540036,None,j,0.294706568995025,476.3971759420019,None,475.797038980003,476.21376432800025,476.7148198560026,477.2147715289975,476.7148198560026,None,,,,,,17,001,exponential,bryg,0.75-0.35,2021_May_20_1559,color_judgement_and_subjective_perception,2020.2.10,60.01548567561281,
0,0.9,training,1000,,,,,,0,55,55,55,,,,,,,,,,,,,477.8147478539977,None,d,0.40923393000412034,477.9147654190019,None,477.31474613799946,477.7314054890012,478.348152796003,478.8483992859983,478.348152796003,None,,,,,,17,001,exponential,bryg,0.75-0.35,2021_May_20_1559,color_judgement_and_subjective_perception,2020.2.10,60.01548567561281,
2,0.9,training,1000,,,,,,0,56,56,56,,,,,,,,,,,,,479.44844160100183,None,j,0.5994892529997742,479.5484447190029,None,478.94841756400274,479.3651261300038,480.1650386429974,480.66523480400065,480.1650386429974,None,,,,,,17,001,exponential,bryg,0.75-0.35,2021_May_20_1559,color_judgement_and_subjective_perception,2020.2.10,60.01548567561281,
3,0.9,training,1000,,,,,,0,57,57,57,,,,,,,,,,,,,481.26544197500334,None,k,0.5186483470024541,481.36530268799834,None,480.76518701500027,481.18204822199914,481.91612649500166,482.41637260300195,481.91612649500166,None,,,,,,17,001,exponential,bryg,0.75-0.35,2021_May_20_1559,color_judgement_and_subjective_perception,2020.2.10,60.01548567561281,
0,0.9,training,1000,,,,,,0,58,58,58,,,,,,,,,,,,,483.0163496469977,None,d,0.3674511830031406,483.11643183900014,None,482.5161739309988,482.93310249099886,483.51638516299863,484.0166933970031,483.51638516299863,None,,,,,,17,001,exponential,bryg,0.75-0.35,2021_May_20_1559,color_judgement_and_subjective_perception,2020.2.10,60.01548567561281,
1,0.9,training,1000,,,,,,0,59,59,59,,,,,,,,,,,,,484.61667193799803,None,f,0.45516983299603453,484.71677792099945,None,484.11667663999833,484.5334449389993,485.19998979799857,485.7001782439984,485.19998979799857,None,,,,,,17,001,exponential,bryg,0.75-0.35,2021_May_20_1559,color_judgement_and_subjective_perception,2020.2.10,60.01548567561281,
3,0.9,training,1000,,,,,,0,60,60,60,,,,,,,,,,,,,486.3003825409978,None,k,0.6036623920008424,486.40030037100223,None,485.80021522400057,486.21699680400343,487.0345923440036,487.53460222399735,487.0345923440036,None,,,,,,17,001,exponential,bryg,0.75-0.35,2021_May_20_1559,color_judgement_and_subjective_perception,2020.2.10,60.01548567561281,
3,0.9,training,1000,,,,,,0,61,61,61,,,,,,,,,,,,,488.1346898990014,None,k,0.5531951219963958,488.23476456900244,None,487.6345143209983,488.05128379200323,488.8180869470016,489.31838014799723,488.8180869470016,None,,,,,,17,001,exponential,bryg,0.75-0.35,2021_May_20_1559,color_judgement_and_subjective_perception,2020.2.10,60.01548567561281,
3,0.9,training,1000,,,,,,0,62,62,62,,,,,,,,,,,,,489.9182041849999,None,k,0.281645793998905,490.0183135249972,None,489.41825516000245,489.8350361319972,490.31828615700215,490.8184481990029,490.31828615700215,None,,,,,,17,001,exponential,bryg,0.75-0.35,2021_May_20_1559,color_judgement_and_subjective_perception,2020.2.10,60.01548567561281,
2,0.9,training,1000,,,,,,0,63,63,63,,,,,,,,,,,,,491.41856427199673,None,j,0.5499191410053754,491.51004100499995,None,490.9184642149994,491.33523233899905,492.0861153029982,492.5861910590029,492.0861153029982,None,,,,,,17,001,exponential,bryg,0.75-0.35,2021_May_20_1559,color_judgement_and_subjective_perception,2020.2.10,60.01548567561281,
1,0.9,training,1000,,,,,,0,64,64,64,,,,,,,,,,,,,493.18635232799716,None,f,0.7417611609998858,493.2862025200011,None,492.68623570899945,493.1029409230032,494.0531181309998,494.5532206670032,494.0531181309998,None,,,,,,17,001,exponential,bryg,0.75-0.35,2021_May_20_1559,color_judgement_and_subjective_perception,2020.2.10,60.01548567561281,
3,0.9,training,1000,,,,,,0,65,65,65,,,,,,,,,,,,,495.1532344320003,None,k,0.46269100900099147,495.25324695800373,None,494.6530099349984,495.0700042719982,495.7366859590038,496.23700361599913,495.7366859590038,None,,,,,,17,001,exponential,bryg,0.75-0.35,2021_May_20_1559,color_judgement_and_subjective_perception,2020.2.10,60.01548567561281,
0,0.9,training,1000,,,,,,0,66,66,66,,,,,,,,,,,,,496.82106249599747,None,d,0.5147596199967666,496.9211998699975,None,496.3368674689991,496.7377200120027,497.4542995829979,497.9544875970023,497.4542995829979,None,,,,,,17,001,exponential,bryg,0.75-0.35,2021_May_20_1559,color_judgement_and_subjective_perception,2020.2.10,60.01548567561281,
3,0.9,training,1000,,,,,,0,67,67,67,,,,,,,,,,,,,498.5546101229993,None,f,0.4292719959994429,498.65468828000303,None,498.05447701999947,498.47129329999734,499.10467868200067,499.6048810920038,499.10467868200067,None,,,,,,17,001,exponential,bryg,0.75-0.35,2021_May_20_1559,color_judgement_and_subjective_perception,2020.2.10,60.01548567561281,
0,0.9,training,1000,,,,,,0,68,68,68,,,,,,,,,,,,,500.2049569829978,None,d,0.5390793600017787,500.30488665099983,None,499.70485483000084,500.12155069300206,500.8715395239997,501.3717097780027,500.8715395239997,None,,,,,,17,001,exponential,bryg,0.75-0.35,2021_May_20_1559,color_judgement_and_subjective_perception,2020.2.10,60.01548567561281,
0,0.9,training,1000,,,,,,0,69,69,69,,,,,,,,,,,,,501.9560225940004,None,d,0.5238904809957603,502.05606394200004,None,501.47166278000077,501.8726161680024,502.60589936799806,503.1059349060015,502.60589936799806,None,,,,,,17,001,exponential,bryg,0.75-0.35,2021_May_20_1559,color_judgement_and_subjective_perception,2020.2.10,60.01548567561281,
1,0.9,training,1000,,,,,,0,70,70,70,,,,,,,,,,,,,503.70633147100307,None,f,0.3334103739980492,503.806438874999,None,503.2060904270038,503.622834075999,504.1729018429978,504.6729252400037,504.1729018429978,None,,,,,,17,001,exponential,bryg,0.75-0.35,2021_May_20_1559,color_judgement_and_subjective_perception,2020.2.10,60.01548567561281,
1,0.9,training,1000,,,,,,0,71,71,71,,,,,,,,,,,,,505.2731122890036,None,f,0.4628521999984514,505.37310427099874,None,504.7730431529999,505.18967811999755,505.85647475300357,506.356622172003,505.85647475300357,None,,,,,,17,001,exponential,bryg,0.75-0.35,2021_May_20_1559,color_judgement_and_subjective_perception,2020.2.10,60.01548567561281,
2,0.9,training,1000,,,,,,0,72,72,72,,,,,,,,,,,,,506.9409118609983,None,k,0.6671035309991566,507.0408396510029,None,506.4565698919978,506.85762507800246,507.7407652980037,508.2409444849982,507.7407652980037,None,,,,,,17,001,exponential,bryg,0.75-0.35,2021_May_20_1559,color_judgement_and_subjective_perception,2020.2.10,60.01548567561281,
1,0.9,training,1000,,,,,,0,73,73,73,,,,,,,,,,,,,508.84123259800253,None,d,0.4226838719987427,508.941285050998,None,508.34097757199925,508.75781090999953,509.3912539660014,509.8913035079968,509.3912539660014,None,,,,,,17,001,exponential,bryg,0.75-0.35,2021_May_20_1559,color_judgement_and_subjective_perception,2020.2.10,60.01548567561281,
2,0.9,training,1000,,,,,,0,74,74,74,,,,,,,,,,,,,510.49137597499794,None,k,0.6044404339991161,510.591506210003,None,509.9913159190037,510.4080852240004,511.2247159730032,511.7091193939996,511.2247159730032,None,,,,,,17,001,exponential,bryg,0.75-0.35,2021_May_20_1559,color_judgement_and_subjective_perception,2020.2.10,60.01548567561281,
3,0.9,training,1000,,,,,,0,75,75,75,,,,,,,,,,,,,512.3090750420015,None,None,-1,512.4091327179995,None,511.8089930310016,512.2259069430002,513.3258142720006,513.8261876629986,513.3258142720006,None,,,,,,17,001,exponential,bryg,0.75-0.35,2021_May_20_1559,color_judgement_and_subjective_perception,2020.2.10,60.01548567561281,
1,0.9,training,1000,,,,,,0,76,76,76,,,,,,,,,,,,,514.4262737719982,None,f,0.549740083006327,514.5262083839989,None,513.9260786160012,514.342973908002,515.0927886659993,515.5929982730013,515.0927886659993,None,,,,,,17,001,exponential,bryg,0.75-0.35,2021_May_20_1559,color_judgement_and_subjective_perception,2020.2.10,60.01548567561281,
3,0.9,training,1000,,,,,,0,77,77,77,,,,,,,,,,,,,516.1930777529997,None,k,0.5508777659997577,516.2930718970019,None,515.6929441640023,516.1097302630005,516.8604897990008,517.3606948380038,516.8604897990008,None,,,,,,17,001,exponential,bryg,0.75-0.35,2021_May_20_1559,color_judgement_and_subjective_perception,2020.2.10,60.01548567561281,
1,0.9,training,1000,,,,,,0,78,78,78,,,,,,,,,,,,,517.9607977179985,None,d,0.4791374780033948,518.0608284310001,None,517.4607778560021,517.877464541998,518.5608800640039,519.0610863320035,518.5608800640039,None,,,,,,17,001,exponential,bryg,0.75-0.35,2021_May_20_1559,color_judgement_and_subjective_perception,2020.2.10,60.01548567561281,
3,0.9,training,1000,,,,,,0,79,79,79,,,,,,,,,,,,,519.6610912050019,None,k,0.7148092380011803,519.7611499010018,None,519.1609950130005,519.5776143830008,520.4942528039974,520.9944338280038,520.4942528039974,None,,,,,,17,001,exponential,bryg,0.75-0.35,2021_May_20_1559,color_judgement_and_subjective_perception,2020.2.10,60.01548567561281,
2,0.9,training,1000,,,,,,0,80,80,80,,,,,,,,,,,,,521.5789780010018,None,j,0.3249827070030733,521.6789476959966,None,521.0946209570029,521.5101491090027,522.0289112190003,522.5289996260035,522.0289112190003,None,,,,,,17,001,exponential,bryg,0.75-0.35,2021_May_20_1559,color_judgement_and_subjective_perception,2020.2.10,60.01548567561281,
0,0.9,training,1000,,,,,,0,81,81,81,,,,,,,,,,,,,523.1289974739993,None,f,0.47897122699941974,523.2290020299988,None,522.6289462979985,523.0456269709975,523.7289916869995,524.2294729420028,523.7289916869995,None,,,,,,17,001,exponential,bryg,0.75-0.35,2021_May_20_1559,color_judgement_and_subjective_perception,2020.2.10,60.01548567561281,
2,0.9,training,1000,,,,,,0,82,82,82,,,,,,,,,,,,,524.8294740229976,None,k,0.6825552549998974,524.9293788240029,None,524.3293393260028,524.7460599600017,525.6292480580014,526.1296693710028,525.6292480580014,None,,,,,,17,001,exponential,bryg,0.75-0.35,2021_May_20_1559,color_judgement_and_subjective_perception,2020.2.10,60.01548567561281,
1,0.9,training,1000,,,,,,0,83,83,83,,,,,,,,,,,,,526.7138207399985,None,d,0.5900109659996815,526.8139525639999,None,526.2295328920009,526.6306194569988,527.4304918740017,527.9304765350025,527.4304918740017,None,,,,,,17,001,exponential,bryg,0.75-0.35,2021_May_20_1559,color_judgement_and_subjective_perception,2020.2.10,60.01548567561281,
3,0.9,training,1000,,,,,,0,84,84,84,,,,,,,,,,,,,528.5305934749995,None,k,0.6693482910050079,528.6305850659992,None,528.0305487459991,528.4470340670014,529.3308069830018,529.8309334169971,529.3308069830018,None,,,,,,17,001,exponential,bryg,0.75-0.35,2021_May_20_1559,color_judgement_and_subjective_perception,2020.2.10,60.01548567561281,
2,0.9,training,1000,,,,,,0,85,85,85,,,,,,,,,,,,,530.431029858999,None,j,0.4649560100006056,530.5309965260021,None,529.9309261950038,530.3477092180037,531.014361663998,531.5131147159991,531.014361663998,None,,,,,,17,001,exponential,bryg,0.75-0.35,2021_May_20_1559,color_judgement_and_subjective_perception,2020.2.10,60.01548567561281,
0,0.9,training,1000,,,,,,0,86,86,86,,,,,,,,,,,,,532.0988250470036,None,d,0.6609372480015736,532.1989061339991,None,531.5987315110033,532.0154872799976,532.8821679940011,533.382235516001,532.8821679940011,None,,,,,,17,001,exponential,bryg,0.75-0.35,2021_May_20_1559,color_judgement_and_subjective_perception,2020.2.10,60.01548567561281,
2,0.9,training,1000,,,,,,0,87,87,87,,,,,,,,,,,,,533.9824948609967,None,k,0.5615758189960616,534.0823818659992,None,533.4822675760006,533.8991329109995,534.6657293250028,535.1659752889973,534.6657293250028,None,,,,,,17,001,exponential,bryg,0.75-0.35,2021_May_20_1559,color_judgement_and_subjective_perception,2020.2.10,60.01548567561281,
3,0.9,training,1000,,,,,,0,88,88,88,,,,,,,,,,,,,535.7660633929991,None,k,0.6579133609993733,535.8660771490031,None,535.2659301000022,535.6827370949977,536.5382901589983,537.0337905900014,536.5382901589983,None,,,,,,17,001,exponential,bryg,0.75-0.35,2021_May_20_1559,color_judgement_and_subjective_perception,2020.2.10,60.01548567561281,
0,0.9,training,1000,,,,,,0,89,89,89,,,,,,,,,,,,,537.6337772010011,None,d,0.4941489799966803,537.7337289619973,None,537.1335350169975,537.5505052200024,538.2503636820038,538.7507447120006,538.2503636820038,None,,,,,,17,001,exponential,bryg,0.75-0.35,2021_May_20_1559,color_judgement_and_subjective_perception,2020.2.10,60.01548567561281,
2,0.9,training,1000,,,,,,0,90,90,90,,,,,,,,,,,,,539.350822061002,None,k,0.505078604001028,539.4508681750012,None,538.8504626840004,539.267495207001,539.9839292390025,540.4841530519989,539.9839292390025,None,,,,,,17,001,exponential,bryg,0.75-0.35,2021_May_20_1559,color_judgement_and_subjective_perception,2020.2.10,60.01548567561281,
1,0.9,training,1000,,,,,,0,91,91,91,,,,,,,,,,,,,541.0843500639967,None,f,0.5476582830015104,541.1842981209993,None,540.5841174110028,541.0010440929982,541.7518286819977,542.2519701370038,541.7518286819977,None,,,,,,17,001,exponential,bryg,0.75-0.35,2021_May_20_1559,color_judgement_and_subjective_perception,2020.2.10,60.01548567561281,
3,0.9,training,1000,,,,,,0,92,92,92,,,,,,,,,,,,,542.852042575003,None,k,0.6440133930009324,542.9519777910027,None,542.351941865003,542.7685340090029,543.6187758329979,544.1190335680003,543.6187758329979,None,,,,,,17,001,exponential,bryg,0.75-0.35,2021_May_20_1559,color_judgement_and_subjective_perception,2020.2.10,60.01548567561281,
2,0.9,training,1000,,,,,,0,93,93,93,,,,,,,,,,,,,544.7190683599983,None,j,0.4168631480060867,544.8190430750037,None,544.2189587079993,544.6357464570028,545.2690775630035,545.7691925820036,545.2690775630035,None,,,,,,17,001,exponential,bryg,0.75-0.35,2021_May_20_1559,color_judgement_and_subjective_perception,2020.2.10,60.01548567561281,
0,0.9,training,1000,,,,,,0,94,94,94,,,,,,,,,,,,,546.369291406998,None,d,0.5666591560002416,546.4693001620035,None,545.8691432699998,546.285897531001,547.0534113890026,547.5535481140032,547.0534113890026,None,,,,,,17,001,exponential,bryg,0.75-0.35,2021_May_20_1559,color_judgement_and_subjective_perception,2020.2.10,60.01548567561281,
1,0.9,training,1000,,,,,,0,95,95,95,,,,,,,,,,,,,548.1536721049997,None,f,0.3022122589973151,548.2537305259975,None,547.6534074349984,548.0702593199967,548.5869464100033,549.0872270219988,548.5869464100033,None,,,,,,17,001,exponential,bryg,0.75-0.35,2021_May_20_1559,color_judgement_and_subjective_perception,2020.2.10,60.01548567561281,
0,0.75,testing,1000,1,,,,,,,,,0,0,0,0,0,0,0,0,,,,,562.491455454001,None,None,-1,562.5916263129984,None,561.9934380740015,562.4083481229973,563.5082570110026,564.0085722430013,563.5082570110026,None,0,0,40,,,17,001,exponential,bryg,0.75-0.35,2021_May_20_1559,color_judgement_and_subjective_perception,2020.2.10,60.01548567561281,
2,0.75,testing,1000,1,,,,,,,,,0,0,0,0,0,1,1,2,,,,,564.6086867569975,None,d,0.8472715980024077,564.7086829929976,None,564.108498378002,564.525363353001,565.5751538530021,566.0754601840017,565.5751538530021,None,30,30,0,,,17,001,exponential,bryg,0.75-0.35,2021_May_20_1559,color_judgement_and_subjective_perception,2020.2.10,60.01548567561281,
3,0.75,testing,1000,1,,,,,,,,,0,0,0,0,0,2,2,3,,,,,566.6597009210018,None,k,0.7240645560013945,566.7598812630022,None,566.1754905010021,566.5764771239992,567.5095454249968,568.0098296599972,567.5095454249968,None,0,52,0,,,17,001,exponential,bryg,0.75-0.35,2021_May_20_1559,color_judgement_and_subjective_perception,2020.2.10,60.01548567561281,
1,0.75,testing,1000,1,,,,,,,,,0,0,0,0,0,3,3,1,,,,,568.610042348002,None,f,0.5978759249992436,568.7100772350022,None,568.1099246750018,568.526756968,569.3267582629996,569.8269818280023,569.3267582629996,None,40,13,0,,,17,001,exponential,bryg,0.75-0.35,2021_May_20_1559,color_judgement_and_subjective_perception,2020.2.10,60.01548567561281,
3,0.75,testing,1000,1,,,,,,,,,0,0,0,0,1,0,4,3,,,,,570.4269094699994,None,k,0.5089958799944725,570.5269558040018,None,569.9268251449976,570.3436469430017,571.0602566009984,571.5452552790011,571.0602566009984,None,0,55,0,,,17,001,exponential,bryg,0.75-0.35,2021_May_20_1559,color_judgement_and_subjective_perception,2020.2.10,60.01548567561281,
2,0.75,testing,1000,1,,,,,,,,,0,0,0,0,1,1,5,2,,,,,572.1447378610028,None,j,0.8472049280026113,572.2447536410036,None,571.6446394910017,572.0613990400016,573.111400613001,573.6115769539974,573.111400613001,None,35,35,0,,,17,001,exponential,bryg,0.75-0.35,2021_May_20_1559,color_judgement_and_subjective_perception,2020.2.10,60.01548567561281,
1,0.75,testing,1000,1,,,,,,,,,0,0,0,0,1,2,6,1,,,,,574.2117388990009,None,d,0.7960748179975781,574.3118910900012,None,573.7115079189971,574.1284344660016,575.1283480240018,575.6285915909975,575.1283480240018,None,42,14,0,,,17,001,exponential,bryg,0.75-0.35,2021_May_20_1559,color_judgement_and_subjective_perception,2020.2.10,60.01548567561281,
0,0.75,testing,1000,1,,,,,,,,,0,0,0,0,1,3,7,0,,,,,576.228731600997,None,d,0.6510853419968043,576.3288085280001,None,575.7284387820036,576.1452906839986,577.0127529090023,577.513044293999,577.0127529090023,None,0,0,46,,,17,001,exponential,bryg,0.75-0.35,2021_May_20_1559,color_judgement_and_subjective_perception,2020.2.10,60.01548567561281,
0,0.75,testing,1000,1,,,,,,,,,0,0,0,0,2,0,8,0,,,,,578.113188688003,None,d,0.5669030690041836,578.2130326929982,None,577.6129849849967,578.0296255389985,578.7964683559985,579.2967588739994,578.7964683559985,None,0,0,48,,,17,001,exponential,bryg,0.75-0.35,2021_May_20_1559,color_judgement_and_subjective_perception,2020.2.10,60.01548567561281,
1,0.75,testing,1000,1,,,,,,,,,0,0,0,0,2,1,9,1,,,,,579.8966778210015,None,f,0.7911299599945778,579.9968428229986,None,579.3966400909994,579.8133028750017,580.8131912590034,581.313556920999,580.8131912590034,None,44,15,0,,,17,001,exponential,bryg,0.75-0.35,2021_May_20_1559,color_judgement_and_subjective_perception,2020.2.10,60.01548567561281,
3,0.75,testing,1000,1,,,,,,,,,0,0,0,0,2,2,10,3,,,,,581.8978094549966,None,k,0.533867778001877,581.9980235269977,None,581.4135920589979,581.8145517480007,582.5643871130014,583.0645546130036,582.5643871130014,None,0,56,0,,,17,001,exponential,bryg,0.75-0.35,2021_May_20_1559,color_judgement_and_subjective_perception,2020.2.10,60.01548567561281,
2,0.75,testing,1000,1,,,,,,,,,0,0,0,0,2,3,11,2,,,,,583.6648478049974,None,f,0.750968643995293,583.7649689949976,None,583.1645620120034,583.5814851519972,584.5480917239984,585.0482750649971,584.5480917239984,None,34,34,0,,,17,001,exponential,bryg,0.75-0.35,2021_May_20_1559,color_judgement_and_subjective_perception,2020.2.10,60.01548567561281,
1,0.75,testing,1000,1,,,,,,,,,0,0,0,0,3,0,12,1,,,,,585.6483924740023,None,None,-1,585.7484466649985,None,585.1481854259982,585.5651096110014,586.649330016,587.1496098279968,586.649330016,None,44,15,0,,,17,001,exponential,bryg,0.75-0.35,2021_May_20_1559,color_judgement_and_subjective_perception,2020.2.10,60.01548567561281,
3,0.75,testing,1000,1,,,,,,,,,0,0,0,0,3,1,13,3,,,,,587.7495144459972,None,k,0.554330414001015,587.8496620239966,None,587.2493483450016,587.6661616280035,588.4329653430032,588.9328616260027,588.4329653430032,None,0,58,0,,,17,001,exponential,bryg,0.75-0.35,2021_May_20_1559,color_judgement_and_subjective_perception,2020.2.10,60.01548567561281,
0,0.75,testing,1000,1,,,,,,,,,0,0,0,0,3,2,14,0,,,,,589.5330261060008,None,f,0.658852084998216,589.6330956239981,None,589.0328180450015,589.4499591610002,590.3164991110025,590.8166723579998,590.3164991110025,None,0,0,49,,,17,001,exponential,bryg,0.75-0.35,2021_May_20_1559,color_judgement_and_subjective_perception,2020.2.10,60.01548567561281,
2,0.75,testing,1000,1,,,,,,,,,0,0,0,0,3,3,15,2,,,,,591.4168491960008,None,k,0.7432203240023227,591.5167165300008,None,590.9166445649971,591.3335783880029,592.2842845729974,592.7844353429973,592.2842845729974,None,39,39,0,,,17,001,exponential,bryg,0.75-0.35,2021_May_20_1559,color_judgement_and_subjective_perception,2020.2.10,60.01548567561281,
3,0.75,testing,1000,1,,,,,,,,,0,0,0,0,4,0,16,3,,,,,593.3846810500036,None,None,-1,593.4846431960032,None,592.8844232060001,593.3011294009993,594.4012746829976,594.9014641699978,594.4012746829976,None,0,60,0,,,17,001,exponential,bryg,0.75-0.35,2021_May_20_1559,color_judgement_and_subjective_perception,2020.2.10,60.01548567561281,
1,0.75,testing,1000,1,,,,,,,,,0,0,0,0,4,1,17,1,,,,,595.5014523479986,None,d,0.5464778659952572,595.6014903550022,None,595.0013722919975,595.4183020639975,596.1681157740022,596.6525518049966,596.1681157740022,None,50,17,0,,,17,001,exponential,bryg,0.75-0.35,2021_May_20_1559,color_judgement_and_subjective_perception,2020.2.10,60.01548567561281,
0,0.75,testing,1000,1,,,,,,,,,0,0,0,0,4,2,18,0,,,,,597.2524400480033,None,d,0.5312051799992332,597.3527552790038,None,596.7525388209979,597.1691714249973,597.9026007089997,598.4028345510014,597.9026007089997,None,0,0,54,,,17,001,exponential,bryg,0.75-0.35,2021_May_20_1559,color_judgement_and_subjective_perception,2020.2.10,60.01548567561281,
2,0.75,testing,1000,1,,,,,,,,,0,0,0,0,4,3,19,2,,,,,599.0032341309998,None,k,0.6766785259969765,599.1032077220007,None,598.5029304049967,598.9197631179995,599.8028747069984,600.3031764870029,599.8028747069984,None,44,44,0,,,17,001,exponential,bryg,0.75-0.35,2021_May_20_1559,color_judgement_and_subjective_perception,2020.2.10,60.01548567561281,
1,0.75,testing,1000,1,,,,,,,,,0,0,0,0,5,0,20,1,,,,,600.9032739000031,None,f,0.7285670950004715,601.0032769070021,None,600.4030699270006,600.8197520329995,601.7540763180004,602.2542990049988,601.7540763180004,None,54,18,0,,,17,001,exponential,bryg,0.75-0.35,2021_May_20_1559,color_judgement_and_subjective_perception,2020.2.10,60.01548567561281,
2,0.75,testing,1000,1,,,,,,,,,0,0,0,0,5,1,21,2,,,,,602.8543602920035,None,j,0.36158932299440494,602.9543729400029,None,602.3542999299971,602.7708341850011,603.3376181679996,603.8379939099977,603.3376181679996,None,47,47,0,,,17,001,exponential,bryg,0.75-0.35,2021_May_20_1559,color_judgement_and_subjective_perception,2020.2.10,60.01548567561281,
0,0.75,testing,1000,1,,,,,,,,,0,0,0,0,5,2,22,0,,,,,604.437954811001,None,d,0.6899287569976877,604.5380236549972,None,603.9377994110037,604.3544953050005,605.2545999279973,605.7545363370009,605.2545999279973,None,0,0,59,,,17,001,exponential,bryg,0.75-0.35,2021_May_20_1559,color_judgement_and_subjective_perception,2020.2.10,60.01548567561281,
3,0.75,testing,1000,1,,,,,,,,,0,0,0,0,5,3,23,3,,,,,606.3547394299967,None,None,-1,606.4549889400005,None,605.8547081950019,606.2715808170033,607.3555918409984,607.8558553210023,607.3555918409984,None,0,68,0,,,17,001,exponential,bryg,0.75-0.35,2021_May_20_1559,color_judgement_and_subjective_perception,2020.2.10,60.01548567561281,
3,0.75,testing,1000,1,,,,,,,,,0,0,0,0,6,0,24,3,,,,,608.4559586839969,None,k,0.44796767799562076,608.5559977939993,None,607.9558265349988,608.3728031950013,609.0227316770033,609.5229744550015,609.0227316770033,None,0,70,0,,,17,001,exponential,bryg,0.75-0.35,2021_May_20_1559,color_judgement_and_subjective_perception,2020.2.10,60.01548567561281,
1,0.75,testing,1000,1,,,,,,,,,0,0,0,0,6,1,25,1,,,,,610.1229772649967,None,d,0.5170326090010349,610.222843001,None,609.6227252309982,610.0395963170013,610.7728463989988,611.2730164859968,610.7728463989988,None,60,20,0,,,17,001,exponential,bryg,0.75-0.35,2021_May_20_1559,color_judgement_and_subjective_perception,2020.2.10,60.01548567561281,
2,0.75,testing,1000,1,,,,,,,,,0,0,0,0,6,2,26,2,,,,,611.8572728310028,None,k,0.5106371539950487,611.9572737859999,None,611.3730690890006,611.7740528520008,612.4906841039992,612.9907850259988,612.4906841039992,None,53,53,0,,,17,001,exponential,bryg,0.75-0.35,2021_May_20_1559,color_judgement_and_subjective_perception,2020.2.10,60.01548567561281,
0,0.75,testing,1000,1,,,,,,,,,0,0,0,0,6,3,27,0,,,,,613.5909670659967,None,f,0.8009889750028378,613.6909765739983,None,613.0906790849986,613.5075248270005,614.5241882190021,615.0244583910026,614.5241882190021,None,0,0,65,,,17,001,exponential,bryg,0.75-0.35,2021_May_20_1559,color_judgement_and_subjective_perception,2020.2.10,60.01548567561281,
3,0.75,testing,1000,1,,,,,,,,,0,0,0,0,7,0,28,3,,,,,615.6243811449967,None,k,0.4553695710055763,615.7245992219978,None,615.1243432999981,615.5411546929972,616.2078001960035,616.692053357001,616.2078001960035,None,0,75,0,,,17,001,exponential,bryg,0.75-0.35,2021_May_20_1559,color_judgement_and_subjective_perception,2020.2.10,60.01548567561281,
2,0.75,testing,1000,1,,,,,,,,,0,0,0,0,7,1,29,2,,,,,617.292242374002,None,j,0.5237724319958943,617.3921972259996,None,616.7922682549979,617.2090311159991,617.9423186229978,618.4425297420021,617.9423186229978,None,57,57,0,,,17,001,exponential,bryg,0.75-0.35,2021_May_20_1559,color_judgement_and_subjective_perception,2020.2.10,60.01548567561281,
1,0.75,testing,1000,1,,,,,,,,,0,0,0,0,7,2,30,1,,,,,619.0426103010032,None,d,0.5331998339970596,619.142762411997,None,618.542379323997,618.9594024980033,619.6926364750034,620.1926803699971,619.6926364750034,None,66,22,0,,,17,001,exponential,bryg,0.75-0.35,2021_May_20_1559,color_judgement_and_subjective_perception,2020.2.10,60.01548567561281,
0,0.75,testing,1000,1,,,,,,,,,0,0,0,0,7,3,31,0,,,,,620.792811223997,None,d,0.8071156469959533,620.8928393020033,None,620.2926572779979,620.7093764489982,621.7269733529974,622.227199822999,621.7269733529974,None,0,0,70,,,17,001,exponential,bryg,0.75-0.35,2021_May_20_1559,color_judgement_and_subjective_perception,2020.2.10,60.01548567561281,
3,0.75,testing,1000,1,,,,,,,,,0,0,0,0,8,0,32,3,,,,,622.8274081490017,None,k,0.5086210779991234,622.9273387110006,None,622.3272299860037,622.7439115029993,623.4606003160006,623.9608123380021,623.4606003160006,None,0,80,0,,,17,001,exponential,bryg,0.75-0.35,2021_May_20_1559,color_judgement_and_subjective_perception,2020.2.10,60.01548567561281,
1,0.75,testing,1000,1,,,,,,,,,0,0,0,0,8,1,33,1,,,,,624.5609197599988,None,f,0.6389628629985964,624.660975095001,None,624.0607617170026,624.4775537640016,625.3273828070014,625.8276747459968,625.3273828070014,None,70,23,0,,,17,001,exponential,bryg,0.75-0.35,2021_May_20_1559,color_judgement_and_subjective_perception,2020.2.10,60.01548567561281,
0,0.75,testing,1000,1,,,,,,,,,0,0,0,0,8,2,34,0,,,,,626.427821350997,None,d,0.5722728920009104,626.5276957570022,None,625.927660854999,626.3445589800031,627.128466807997,627.6287301979974,627.128466807997,None,0,0,72,,,17,001,exponential,bryg,0.75-0.35,2021_May_20_1559,color_judgement_and_subjective_perception,2020.2.10,60.01548567561281,
2,0.75,testing,1000,1,,,,,,,,,0,0,0,0,8,3,35,2,,,,,628.2288895450038,None,k,0.6271293079989846,628.3288181399985,None,627.7287111530022,628.1455902430025,628.9789715970037,629.4792215929992,628.9789715970037,None,60,60,0,,,17,001,exponential,bryg,0.75-0.35,2021_May_20_1559,color_judgement_and_subjective_perception,2020.2.10,60.01548567561281,
1,0.75,testing,1000,1,,,,,,,,,0,0,0,0,9,0,36,1,,,,,630.0791850919995,None,None,-1,630.1792184270016,None,629.5791697340028,629.995781767997,631.0957109060037,631.5804545089995,631.0957109060037,None,70,23,0,,,17,001,exponential,bryg,0.75-0.35,2021_May_20_1559,color_judgement_and_subjective_perception,2020.2.10,60.01548567561281,
2,0.75,testing,1000,1,,,,,,,,,0,0,0,0,9,1,37,2,,,,,632.1802935890009,None,k,0.5077207700014696,632.2802498739984,None,631.6802105829993,632.096996428998,632.8135981119995,633.3138822350011,632.8135981119995,None,63,63,0,,,17,001,exponential,bryg,0.75-0.35,2021_May_20_1559,color_judgement_and_subjective_perception,2020.2.10,60.01548567561281,
0,0.75,testing,1000,1,,,,,,,,,0,0,0,0,9,2,38,0,,,,,633.9140296230034,None,d,0.5578447059961036,634.0141065580028,None,633.4137744330001,633.8306567370018,634.5972291729995,635.0974014110034,634.5972291729995,None,0,0,75,,,17,001,exponential,bryg,0.75-0.35,2021_May_20_1559,color_judgement_and_subjective_perception,2020.2.10,60.01548567561281,
3,0.75,testing,1000,1,,,,,,,,,0,0,0,0,9,3,39,3,,,,,635.6974999320009,None,k,0.4142947689979337,635.7976391589982,None,635.1973357649986,635.6141113019985,636.2309180939992,636.7153613289993,636.2309180939992,None,0,82,0,,,17,001,exponential,bryg,0.75-0.35,2021_May_20_1559,color_judgement_and_subjective_perception,2020.2.10,60.01548567561281,
2,0.75,testing,1000,1,,,,,,,,,0,0,0,0,10,0,40,2,,,,,637.3153050499968,None,j,0.3007651249936316,637.4151603089995,None,636.8151339620017,637.2320833129997,637.7484842799968,638.2488893819973,637.7484842799968,None,67,67,0,,,17,001,exponential,bryg,0.75-0.35,2021_May_20_1559,color_judgement_and_subjective_perception,2020.2.10,60.01548567561281,
0,0.75,testing,1000,1,,,,,,,,,0,0,0,0,10,1,41,0,,,,,638.8489611350014,None,d,0.510822904005181,638.9490425679978,None,638.348737084998,638.7655499269968,639.482203476,639.9823180530002,639.482203476,None,0,0,75,,,17,001,exponential,bryg,0.75-0.35,2021_May_20_1559,color_judgement_and_subjective_perception,2020.2.10,60.01548567561281,
1,0.75,testing,1000,1,,,,,,,,,0,0,0,0,10,2,42,1,,,,,640.5824842349975,None,f,0.5374036360008176,640.6825494689983,None,640.0822632459967,640.4991330519988,641.2490778110005,641.7335811320008,641.2490778110005,None,73,24,0,,,17,001,exponential,bryg,0.75-0.35,2021_May_20_1559,color_judgement_and_subjective_perception,2020.2.10,60.01548567561281,
3,0.75,testing,1000,1,,,,,,,,,0,0,0,0,10,3,43,3,,,,,642.3334611929968,None,k,0.6744377229988459,642.4335319930033,None,641.8336313589971,642.2502868180018,643.1333850049996,643.6336480039972,643.1333850049996,None,0,79,0,,,17,001,exponential,bryg,0.75-0.35,2021_May_20_1559,color_judgement_and_subjective_perception,2020.2.10,60.01548567561281,
1,0.75,testing,1000,1,,,,,,,,,0,0,0,0,11,0,44,1,,,,,644.23399126,None,d,0.5180566150011146,644.3338996079983,None,643.7337120470038,644.150640150001,644.8838332700034,645.3840113210026,644.8838332700034,None,72,24,0,,,17,001,exponential,bryg,0.75-0.35,2021_May_20_1559,color_judgement_and_subjective_perception,2020.2.10,60.01548567561281,
3,0.75,testing,1000,1,,,,,,,,,0,0,0,0,11,1,45,3,,,,,645.9841622219974,None,k,0.7036552299978212,646.084295462002,None,645.4838823020036,645.9006732280031,646.8182589639982,647.3186124319982,646.8182589639982,None,0,78,0,,,17,001,exponential,bryg,0.75-0.35,2021_May_20_1559,color_judgement_and_subjective_perception,2020.2.10,60.01548567561281,
2,0.75,testing,1000,1,,,,,,,,,0,0,0,0,11,2,46,2,,,,,647.9185496880018,None,j,0.3372343049995834,648.0186814990011,None,647.4184006689975,647.8351299909991,648.3850751110003,648.8854126540027,648.3850751110003,None,66,66,0,,,17,001,exponential,bryg,0.75-0.35,2021_May_20_1559,color_judgement_and_subjective_perception,2020.2.10,60.01548567561281,
0,0.75,testing,1000,1,,,,,,,,,0,0,0,0,11,3,47,0,,,,,649.4855516570024,None,d,0.618331853998825,649.5856380929981,None,648.9853630729995,649.4021811220009,650.2354042360021,650.7356790630001,650.2354042360021,None,0,0,72,,,17,001,exponential,bryg,0.75-0.35,2021_May_20_1559,color_judgement_and_subjective_perception,2020.2.10,60.01548567561281,
3,0.75,testing,1000,1,,,,,,,,,0,0,0,0,12,0,48,3,,,,,651.3356097319993,None,k,0.5360749660030706,651.4358882450033,None,650.8353946880015,651.2526123190037,652.0032804549992,652.5033114920006,652.0032804549992,None,0,76,0,,,17,001,exponential,bryg,0.75-0.35,2021_May_20_1559,color_judgement_and_subjective_perception,2020.2.10,60.01548567561281,
2,0.75,testing,1000,1,,,,,,,,,0,0,0,0,12,1,49,2,,,,,653.1035095620027,None,j,0.7365377850001096,653.2034306420028,None,652.6032731910018,653.0200006779996,653.9702699699992,654.4704798419989,653.9702699699992,None,64,64,0,,,17,001,exponential,bryg,0.75-0.35,2021_May_20_1559,color_judgement_and_subjective_perception,2020.2.10,60.01548567561281,
0,0.75,testing,1000,1,,,,,,,,,0,0,0,0,12,2,50,0,,,,,655.0704124100012,None,d,0.5374605090037221,655.1705100649997,None,654.5703229529972,654.9870451219977,655.736988769997,656.2372535519971,655.736988769997,None,0,0,68,,,17,001,exponential,bryg,0.75-0.35,2021_May_20_1559,color_judgement_and_subjective_perception,2020.2.10,60.01548567561281,
1,0.75,testing,1000,1,,,,,,,,,0,0,0,0,12,3,51,1,,,,,656.821687124997,None,f,0.5863323470039177,656.9216143220037,None,656.3372801880032,656.7381662940024,657.5384070069995,658.0383261699972,657.5384070069995,None,70,23,0,,,17,001,exponential,bryg,0.75-0.35,2021_May_20_1559,color_judgement_and_subjective_perception,2020.2.10,60.01548567561281,
1,0.75,testing,1000,1,,,,,,,,,0,0,0,0,13,0,52,1,,,,,658.6384125609984,None,f,0.4813423059968045,658.7386224099973,None,658.1383526740028,658.5552796979973,659.2384746699972,659.7387669230011,659.2384746699972,None,70,23,0,,,17,001,exponential,bryg,0.75-0.35,2021_May_20_1559,color_judgement_and_subjective_perception,2020.2.10,60.01548567561281,
0,0.75,testing,1000,1,,,,,,,,,0,0,0,0,13,1,53,0,,,,,660.3387601750001,None,d,0.5733820379973622,660.4385883279974,None,659.8385393339995,660.255430543999,661.0387300470029,661.5389810069973,661.0387300470029,None,0,0,64,,,17,001,exponential,bryg,0.75-0.35,2021_May_20_1559,color_judgement_and_subjective_perception,2020.2.10,60.01548567561281,
2,0.75,testing,1000,1,,,,,,,,,0,0,0,0,13,2,54,2,,,,,662.1232201309977,None,j,0.5806671699974686,662.2232994169972,None,661.6230105560026,662.0400031239988,662.8231720309996,663.3233456700036,662.8231720309996,None,60,60,0,,,17,001,exponential,bryg,0.75-0.35,2021_May_20_1559,color_judgement_and_subjective_perception,2020.2.10,60.01548567561281,
3,0.75,testing,1000,1,,,,,,,,,0,0,0,0,13,3,55,3,,,,,663.9234409150013,None,k,0.3003339069982758,664.0235455630027,None,663.4231760580005,663.8402025920004,664.3567213799979,664.856916949997,664.3567213799979,None,0,68,0,,,17,001,exponential,bryg,0.75-0.35,2021_May_20_1559,color_judgement_and_subjective_perception,2020.2.10,60.01548567561281,
3,0.75,testing,1000,1,,,,,,,,,0,0,0,0,14,0,56,3,,,,,665.456921928002,None,k,0.43903770099859685,665.556933697997,None,664.9568369359986,665.3735516279994,666.0235962119987,666.5236781170024,666.0235962119987,None,0,66,0,,,17,001,exponential,bryg,0.75-0.35,2021_May_20_1559,color_judgement_and_subjective_perception,2020.2.10,60.01548567561281,
0,0.75,testing,1000,1,,,,,,,,,0,0,0,0,14,1,57,0,,,,,667.1079768999989,None,d,0.531866685996647,667.2081272970026,None,666.6080096560036,667.0247575629983,667.7580753279981,668.2581767750016,667.7580753279981,None,0,0,59,,,17,001,exponential,bryg,0.75-0.35,2021_May_20_1559,color_judgement_and_subjective_perception,2020.2.10,60.01548567561281,
1,0.75,testing,1000,1,,,,,,,,,0,0,0,0,14,2,58,1,,,,,668.8585030559989,None,f,0.5654446949993144,668.9585194199972,None,668.3580785239974,668.7749985519986,669.5417587909978,670.0417967579997,669.5417587909978,None,65,22,0,,,17,001,exponential,bryg,0.75-0.35,2021_May_20_1559,color_judgement_and_subjective_perception,2020.2.10,60.01548567561281,
2,0.75,testing,1000,1,,,,,,,,,0,0,0,0,14,3,59,2,,,,,670.641923520001,None,j,0.4301302329986356,670.741814175999,None,670.1417613800004,670.5585738419977,671.1919688130001,671.676380431003,671.1919688130001,None,54,54,0,,,17,001,exponential,bryg,0.75-0.35,2021_May_20_1559,color_judgement_and_subjective_perception,2020.2.10,60.01548567561281,
1,0.75,testing,1000,1,,,,,,,,,0,0,0,0,15,0,60,1,,,,,672.2764002420008,None,f,0.6436819769951398,672.3763220659966,None,671.7764015110006,672.192928728,673.0429059489979,673.5432997219978,673.0429059489979,None,62,21,0,,,17,001,exponential,bryg,0.75-0.35,2021_May_20_1559,color_judgement_and_subjective_perception,2020.2.10,60.01548567561281,
2,0.75,testing,1000,1,,,,,,,,,0,0,0,0,15,1,61,2,,,,,674.1433799220031,None,j,0.5365302089994657,674.2434030950026,None,673.64302512,674.0599020770023,674.8099616120016,675.3101881699986,674.8099616120016,None,51,51,0,,,17,001,exponential,bryg,0.75-0.35,2021_May_20_1559,color_judgement_and_subjective_perception,2020.2.10,60.01548567561281,
3,0.75,testing,1000,1,,,,,,,,,0,0,0,0,15,2,62,3,,,,,675.9101364239978,None,k,0.5376948839984834,676.0102909929992,None,675.410082274997,675.8269739199968,676.5711882620017,677.0611766739967,676.5711882620017,None,0,59,0,,,17,001,exponential,bryg,0.75-0.35,2021_May_20_1559,color_judgement_and_subjective_perception,2020.2.10,60.01548567561281,
0,0.75,testing,1000,1,,,,,,,,,0,0,0,0,15,3,63,0,,,,,677.6611847000022,None,d,0.5626989670054172,677.7612359569976,None,677.1611768060029,677.5779938999985,678.3445891489973,678.8449192240005,678.3445891489973,None,0,0,52,,,17,001,exponential,bryg,0.75-0.35,2021_May_20_1559,color_judgement_and_subjective_perception,2020.2.10,60.01548567561281,
3,0.75,testing,1000,1,,,,,,,,,0,0,0,0,16,0,64,3,,,,,679.4451015879968,None,f,0.49086208600056125,679.5450831179987,None,678.9447752260021,679.3617060359975,680.0614161620033,680.5619064290004,680.0614161620033,None,0,56,0,,,17,001,exponential,bryg,0.75-0.35,2021_May_20_1559,color_judgement_and_subjective_perception,2020.2.10,60.01548567561281,
1,0.75,testing,1000,1,,,,,,,,,0,0,0,0,16,1,65,1,,,,,681.161861392,None,f,0.5660564409990911,681.2619247339971,None,680.6616420930004,681.0785096190011,681.8458976350012,682.346232969001,681.8458976350012,None,58,19,0,,,17,001,exponential,bryg,0.75-0.35,2021_May_20_1559,color_judgement_and_subjective_perception,2020.2.10,60.01548567561281,
2,0.75,testing,1000,1,,,,,,,,,0,0,0,0,16,2,66,2,,,,,682.946232094997,None,k,0.757647572994756,683.0462848070019,None,682.4460919889971,682.8630257640034,683.8295257189966,684.3298381850036,683.8295257189966,None,47,47,0,,,17,001,exponential,bryg,0.75-0.35,2021_May_20_1559,color_judgement_and_subjective_perception,2020.2.10,60.01548567561281,
0,0.75,testing,1000,1,,,,,,,,,0,0,0,0,16,3,67,0,,,,,684.9298775279967,None,d,0.5260736959971837,685.0298736210025,None,684.4297075180002,684.8465741039981,685.5797225190036,686.0800577889968,685.5797225190036,None,0,0,51,,,17,001,exponential,bryg,0.75-0.35,2021_May_20_1559,color_judgement_and_subjective_perception,2020.2.10,60.01548567561281,
0,0.75,testing,1000,1,,,,,,,,,0,0,0,0,17,0,68,0,,,,,686.664417713997,None,f,0.6075295050031855,686.7644098119999,None,686.1798721059968,686.5813642069988,687.3974679940002,687.8977224670016,687.3974679940002,None,0,0,51,,,17,001,exponential,bryg,0.75-0.35,2021_May_20_1559,color_judgement_and_subjective_perception,2020.2.10,60.01548567561281,
1,0.75,testing,1000,1,,,,,,,,,0,0,0,0,17,1,69,1,,,,,688.4977752220002,None,f,0.7420669399944018,688.597873298997,None,687.9977399650015,688.4145205120003,689.3646288379969,689.8646543159994,689.3646288379969,None,59,20,0,,,17,001,exponential,bryg,0.75-0.35,2021_May_20_1559,color_judgement_and_subjective_perception,2020.2.10,60.01548567561281,
3,0.75,testing,1000,1,,,,,,,,,0,0,0,0,17,2,70,3,,,,,690.4647424139985,None,k,0.7351162630002364,690.5648234140026,None,689.9648336710015,690.3814660639982,691.3315266240024,691.8158747580019,691.3315266240024,None,0,61,0,,,17,001,exponential,bryg,0.75-0.35,2021_May_20_1559,color_judgement_and_subjective_perception,2020.2.10,60.01548567561281,
2,0.75,testing,1000,1,,,,,,,,,0,0,0,0,17,3,71,2,,,,,692.4159300219981,None,j,0.5680339909959002,692.5159098669974,None,691.9157767630022,692.3327064589976,693.1159539490036,693.6161751850013,693.1159539490036,None,53,53,0,,,17,001,exponential,bryg,0.75-0.35,2021_May_20_1559,color_judgement_and_subjective_perception,2020.2.10,60.01548567561281,
3,0.75,testing,1000,1,,,,,,,,,0,0,0,0,18,0,72,3,,,,,694.2164113719991,None,k,0.5275109119975241,694.3163669770001,None,693.7161654149968,694.1330521589989,694.8663155809991,695.3664483679968,694.8663155809991,None,0,60,0,,,17,001,exponential,bryg,0.75-0.35,2021_May_20_1559,color_judgement_and_subjective_perception,2020.2.10,60.01548567561281,
1,0.75,testing,1000,1,,,,,,,,,0,0,0,0,18,1,73,1,,,,,695.9666056529968,None,f,0.6013643190017319,696.0665691640024,None,695.4664017519972,695.8832163940024,696.7007842520034,697.2009254310033,696.7007842520034,None,58,19,0,,,17,001,exponential,bryg,0.75-0.35,2021_May_20_1559,color_judgement_and_subjective_perception,2020.2.10,60.01548567561281,
2,0.75,testing,1000,1,,,,,,,,,0,0,0,0,18,2,74,2,,,,,697.8009136170003,None,j,0.6789011879955069,697.9009576120006,None,697.3007758739986,697.7177160650026,698.6010010579994,699.1012087319978,698.6010010579994,None,51,51,0,,,17,001,exponential,bryg,0.75-0.35,2021_May_20_1559,color_judgement_and_subjective_perception,2020.2.10,60.01548567561281,
0,0.75,testing,1000,1,,,,,,,,,0,0,0,0,18,3,75,0,,,,,699.7012805740014,None,d,0.6186566480027977,699.8012932069978,None,699.2011329820016,699.6181466970011,700.4511731079983,700.9513808260017,700.4511731079983,None,0,0,51,,,17,001,exponential,bryg,0.75-0.35,2021_May_20_1559,color_judgement_and_subjective_perception,2020.2.10,60.01548567561281,
1,0.75,testing,1000,1,,,,,,,,,0,0,0,0,19,0,76,1,,,,,701.5514360570014,None,f,0.5922433270025067,701.6357200420025,None,701.0513149399994,701.4682165339982,702.2523664969995,702.752470708001,702.2523664969995,None,54,18,0,,,17,001,exponential,bryg,0.75-0.35,2021_May_20_1559,color_judgement_and_subjective_perception,2020.2.10,60.01548567561281,
0,0.75,testing,1000,1,,,,,,,,,0,0,0,0,19,1,77,0,,,,,703.3526037830015,None,d,0.6473714640014805,703.452601529003,None,702.8521958030033,703.2691468269986,704.1193982260011,704.6194995929982,704.1193982260011,None,0,0,48,,,17,001,exponential,bryg,0.75-0.35,2021_May_20_1559,color_judgement_and_subjective_perception,2020.2.10,60.01548567561281,
3,0.75,testing,1000,1,,,,,,,,,0,0,0,0,19,2,78,3,,,,,705.2193517999985,None,k,0.7243560509959934,705.3196126929979,None,704.7194669009987,705.1363294120019,706.0695168509992,706.5685365109966,706.0695168509992,None,0,53,0,,,17,001,exponential,bryg,0.75-0.35,2021_May_20_1559,color_judgement_and_subjective_perception,2020.2.10,60.01548567561281,
2,0.75,testing,1000,1,,,,,,,,,0,0,0,0,19,3,79,2,,,,,707.1540284410003,None,j,0.5339539099950343,707.2539407810036,None,706.6539372269981,707.0706797660023,707.8205350089993,708.3209108130031,707.8205350089993,None,45,45,0,,,17,001,exponential,bryg,0.75-0.35,2021_May_20_1559,color_judgement_and_subjective_perception,2020.2.10,60.01548567561281,
3,0.75,testing,1000,1,,,,,,,,,0,0,0,0,20,0,80,3,,,,,708.9210216720021,None,k,0.8868685480047134,709.0210830880023,None,708.4207208160005,708.8376487959977,709.9375785509983,710.4378573610011,709.9375785509983,None,0,50,0,,,17,001,exponential,bryg,0.75-0.35,2021_May_20_1559,color_judgement_and_subjective_perception,2020.2.10,60.01548567561281,
1,0.75,testing,1000,1,,,,,,,,,0,0,0,0,20,1,81,1,,,,,711.0378261000005,None,None,-1,711.1378917089969,None,710.5377059910024,710.9546899920024,712.0387381469991,712.5389280119998,712.0387381469991,None,48,16,0,,,17,001,exponential,bryg,0.75-0.35,2021_May_20_1559,color_judgement_and_subjective_perception,2020.2.10,60.01548567561281,
2,0.75,testing,1000,1,,,,,,,,,0,0,0,0,20,2,82,2,,,,,713.1390359990037,None,j,0.5489478290037368,713.2389778509969,None,712.6387907149983,713.055714768001,713.8056493999975,714.3058217270009,713.8056493999975,None,43,43,0,,,17,001,exponential,bryg,0.75-0.35,2021_May_20_1559,color_judgement_and_subjective_perception,2020.2.10,60.01548567561281,
0,0.75,testing,1000,1,,,,,,,,,0,0,0,0,20,3,83,0,,,,,714.9059133170013,None,d,0.5338322929965216,715.0060246170033,None,714.4059242860021,714.8227089680004,715.5726319199966,716.0729024109969,715.5726319199966,None,0,0,43,,,17,001,exponential,bryg,0.75-0.35,2021_May_20_1559,color_judgement_and_subjective_perception,2020.2.10,60.01548567561281,
0,0.75,testing,1000,1,,,,,,,,,0,0,0,0,21,0,84,0,,,,,716.6570737220027,None,d,0.5027873590006493,716.7571756539983,None,716.1727719580012,716.5809850310034,717.2903279489983,717.790632985998,717.2903279489983,None,0,0,41,,,17,001,exponential,bryg,0.75-0.35,2021_May_20_1559,color_judgement_and_subjective_perception,2020.2.10,60.01548567561281,
1,0.75,testing,1000,1,,,,,,,,,0,0,0,0,21,1,85,1,,,,,718.3908130790005,None,j,0.7291954649990657,718.4907679390017,None,717.8904202319973,718.3071888679988,719.2408039579968,719.7408833020017,719.2408039579968,None,47,16,0,,,17,001,exponential,bryg,0.75-0.35,2021_May_20_1559,color_judgement_and_subjective_perception,2020.2.10,60.01548567561281,
2,0.75,testing,1000,1,,,,,,,,,0,0,0,0,21,2,86,2,,,,,720.3410643940006,None,j,0.8827737800020259,720.4411329520008,None,719.840779967999,720.2576269799974,721.3408588289967,721.8253573719994,721.3408588289967,None,40,40,0,,,17,001,exponential,bryg,0.75-0.35,2021_May_20_1559,color_judgement_and_subjective_perception,2020.2.10,60.01548567561281,
3,0.75,testing,1000,1,,,,,,,,,0,0,0,0,21,3,87,3,,,,,722.4252986170031,None,j,0.46270234099938534,722.5252738479976,None,721.9251422559973,722.3422018400015,723.008705485001,723.5090320809977,723.008705485001,None,0,48,0,,,17,001,exponential,bryg,0.75-0.35,2021_May_20_1559,color_judgement_and_subjective_perception,2020.2.10,60.01548567561281,
0,0.75,testing,1000,1,,,,,,,,,0,0,0,0,22,0,88,0,,,,,724.1091272799968,None,d,0.6427301680014352,724.2092156250001,None,723.6088725869995,724.0258325629984,724.8756055249978,725.3759738329973,724.8756055249978,None,0,0,42,,,17,001,exponential,bryg,0.75-0.35,2021_May_20_1559,color_judgement_and_subjective_perception,2020.2.10,60.01548567561281,
1,0.75,testing,1000,1,,,,,,,,,0,0,0,0,22,1,89,1,,,,,725.9760828700018,None,f,0.5680346719964291,726.075861047997,None,725.4759100680021,725.8926135369984,726.6768234720003,727.1769485010009,726.6768234720003,None,52,17,0,,,17,001,exponential,bryg,0.75-0.35,2021_May_20_1559,color_judgement_and_subjective_perception,2020.2.10,60.01548567561281,
3,0.75,testing,1000,1,,,,,,,,,0,0,0,0,22,2,90,3,,,,,727.7771231509978,None,k,0.8547325420004199,727.8771918569983,None,727.2768393950028,727.6936688810019,728.7604234120008,729.2606298289975,728.7604234120008,None,0,50,0,,,17,001,exponential,bryg,0.75-0.35,2021_May_20_1559,color_judgement_and_subjective_perception,2020.2.10,60.01548567561281,
2,0.75,testing,1000,1,,,,,,,,,0,0,0,0,22,3,91,2,,,,,729.8607379399982,None,j,0.627249766002933,729.9606579300016,None,729.3605437939987,729.777418079997,730.610849935998,731.1109478290018,730.610849935998,None,40,40,0,,,17,001,exponential,bryg,0.75-0.35,2021_May_20_1559,color_judgement_and_subjective_perception,2020.2.10,60.01548567561281,
1,0.75,testing,1000,1,,,,,,,,,0,0,0,0,23,0,92,1,,,,,731.6953221290023,None,f,0.7926288339949679,731.795303992003,None,731.211090195,731.6117738949979,732.6118699590006,733.1119639890021,732.6118699590006,None,50,17,0,,,17,001,exponential,bryg,0.75-0.35,2021_May_20_1559,color_judgement_and_subjective_perception,2020.2.10,60.01548567561281,
3,0.75,testing,1000,1,,,,,,,,,0,0,0,0,23,1,93,3,,,,,733.7121830660035,None,j,0.4956559610000113,733.8123057409975,None,733.2118487179978,733.6288718479991,734.3288643510023,734.8290111800015,734.3288643510023,None,0,46,0,,,17,001,exponential,bryg,0.75-0.35,2021_May_20_1559,color_judgement_and_subjective_perception,2020.2.10,60.01548567561281,
0,0.75,testing,1000,1,,,,,,,,,0,0,0,0,23,2,94,0,,,,,735.4290906530005,None,d,0.6349099500002922,735.5290232670013,None,734.928844756003,735.3458496419989,736.1956805299997,736.6800581880016,736.1956805299997,None,0,0,39,,,17,001,exponential,bryg,0.75-0.35,2021_May_20_1559,color_judgement_and_subjective_perception,2020.2.10,60.01548567561281,
2,0.75,testing,1000,1,,,,,,,,,0,0,0,0,23,3,95,2,,,,,737.2799429610022,None,k,0.8479179420028231,737.3800339209993,None,736.7800944740011,737.1968748650033,738.2468923859997,738.747016688998,738.2468923859997,None,37,37,0,,,17,001,exponential,bryg,0.75-0.35,2021_May_20_1559,color_judgement_and_subjective_perception,2020.2.10,60.01548567561281,
3,0.75,testing,1000,1,,,,,,,,,0,0,0,0,,,,,0,0,0,3,786.3283247799991,None,k,0.8315709180023987,786.4283874489993,None,785.8280321420025,786.2450512330033,787.2821298999988,787.7794325299983,787.2821298999988,None,0,48,0,738.8593496210015,None,17,001,exponential,bryg,0.75-0.35,2021_May_20_1559,color_judgement_and_subjective_perception,2020.2.10,60.01548567561281,
3,0.75,testing,1000,1,,,,,,,,,0,0,0,0,,,,,0,1,1,3,788.3794921689987,None,k,0.46059040899854153,788.4794402569969,None,787.8792129189969,788.2960840809974,788.9628265150022,789.4630747499978,788.9628265150022,None,0,46,0,None,None,17,001,exponential,bryg,0.75-0.35,2021_May_20_1559,color_judgement_and_subjective_perception,2020.2.10,60.01548567561281,
2,0.75,testing,1000,1,,,,,,,,,0,0,0,0,,,,,0,2,2,2,790.0630861430036,None,j,0.504912342003081,790.1630530230032,None,789.5628256100026,789.9796966810027,790.6963290679996,791.1965829219989,790.6963290679996,None,37,37,0,None,None,17,001,exponential,bryg,0.75-0.35,2021_May_20_1559,color_judgement_and_subjective_perception,2020.2.10,60.01548567561281,
3,0.75,testing,1000,1,,,,,,,,,0,0,0,0,,,,,0,3,3,3,791.7808544660002,None,j,0.3632635219983058,791.8807003499969,None,791.2963563520025,791.6976070899982,792.2652855299966,792.764220721001,792.2652855299966,None,0,43,0,None,None,17,001,exponential,bryg,0.75-0.35,2021_May_20_1559,color_judgement_and_subjective_perception,2020.2.10,60.01548567561281,
0,0.75,testing,1000,1,,,,,,,,,0,0,0,0,,,,,1,0,4,0,793.364379933002,None,d,0.5396360199956689,793.4643276130009,None,792.8640029739981,793.2810535289973,794.0324616040016,794.531416414,794.0324616040016,None,0,0,36,None,None,17,001,exponential,bryg,0.75-0.35,2021_May_20_1559,color_judgement_and_subjective_perception,2020.2.10,60.01548567561281,
2,0.75,testing,1000,1,,,,,,,,,0,0,0,0,,,,,1,1,5,2,795.1311754830022,None,j,0.6206942879944108,795.2312712069979,None,794.6311080029991,795.0478093010024,795.8812126589983,796.3814677949995,795.8812126589983,None,39,39,0,None,None,17,001,exponential,bryg,0.75-0.35,2021_May_20_1559,color_judgement_and_subjective_perception,2020.2.10,60.01548567561281,
3,0.75,testing,1000,1,,,,,,,,,0,0,0,0,,,,,1,2,6,3,796.9658196570017,None,k,0.5220721299992874,797.0658856439986,None,796.4812787379997,796.8824514389999,797.615552467003,798.1158045229968,797.615552467003,None,0,45,0,None,None,17,001,exponential,bryg,0.75-0.35,2021_May_20_1559,color_judgement_and_subjective_perception,2020.2.10,60.01548567561281,
1,0.75,testing,1000,1,,,,,,,,,0,0,0,0,,,,,1,3,7,1,798.7159782439994,None,f,0.4919603200032725,798.8160139640022,None,798.215665882999,798.6327552270013,799.3327823200016,799.8328449089968,799.3327823200016,None,48,16,0,None,None,17,001,exponential,bryg,0.75-0.35,2021_May_20_1559,color_judgement_and_subjective_perception,2020.2.10,60.01548567561281,
0,0.75,testing,1000,1,,,,,,,,,0,0,0,0,,,,,2,0,8,0,800.4329366300008,None,d,0.8389921029956895,800.5329606590021,None,799.9327085940022,800.3494846480025,801.3996245140006,801.8840009440028,801.3996245140006,None,0,0,33,None,None,17,001,exponential,bryg,0.75-0.35,2021_May_20_1559,color_judgement_and_subjective_perception,2020.2.10,60.01548567561281,
1,0.75,testing,1000,1,,,,,,,,,0,0,0,0,,,,,2,1,9,1,802.4841030680036,None,f,0.5479699950010399,802.583999262999,None,801.9839255370025,802.4005931290012,803.150701190003,803.651018083001,803.150701190003,None,45,15,0,None,None,17,001,exponential,bryg,0.75-0.35,2021_May_20_1559,color_judgement_and_subjective_perception,2020.2.10,60.01548567561281,
0,0.75,testing,1000,1,,,,,,,,,0,0,0,0,,,,,2,2,10,0,804.2511264939967,None,j,0.5408549960047822,804.3511201860019,None,803.7507995760025,804.167811020001,804.9194168730028,805.4179994439983,804.9194168730028,None,0,0,30,None,None,17,001,exponential,bryg,0.75-0.35,2021_May_20_1559,color_judgement_and_subjective_perception,2020.2.10,60.01548567561281,
0,0.75,testing,1000,1,,,,,,,,,0,0,0,0,,,,,2,3,11,0,806.0179528259978,None,d,0.5579437630003667,806.1180041269981,None,805.5175919280009,805.9344606360028,806.703509617997,807.2022320190008,806.703509617997,None,0,0,32,None,None,17,001,exponential,bryg,0.75-0.35,2021_May_20_1559,color_judgement_and_subjective_perception,2020.2.10,60.01548567561281,
2,0.75,testing,1000,1,,,,,,,,,0,0,0,0,,,,,3,0,12,2,807.8023246500015,None,d,0.38166373199783266,807.9022858090029,None,807.3021083979984,807.7190797899966,808.303658734003,808.8025453430018,808.303658734003,None,33,33,0,None,None,17,001,exponential,bryg,0.75-0.35,2021_May_20_1559,color_judgement_and_subjective_perception,2020.2.10,60.01548567561281,
2,0.75,testing,1000,1,,,,,,,,,0,0,0,0,,,,,3,1,13,2,809.4027371979973,None,j,0.35725281899794936,809.5027184100036,None,808.9023661210013,809.3194348149991,809.8872524239996,810.3862008180004,809.8872524239996,None,35,35,0,None,None,17,001,exponential,bryg,0.75-0.35,2021_May_20_1559,color_judgement_and_subjective_perception,2020.2.10,60.01548567561281,
0,0.75,testing,1000,1,,,,,,,,,0,0,0,0,,,,,3,2,14,0,810.9862907549978,None,k,0.46165475899761077,811.0862906449984,None,810.4860446300008,810.9027569239988,811.5707340579975,812.0539514769989,811.5707340579975,None,0,0,32,None,None,17,001,exponential,bryg,0.75-0.35,2021_May_20_1559,color_judgement_and_subjective_perception,2020.2.10,60.01548567561281,
0,0.75,testing,1000,1,,,,,,,,,0,0,0,0,,,,,3,3,15,0,812.6539223490036,None,d,0.6341007969967905,812.7537960400005,None,812.1536996490031,812.5705048890013,813.4220651779979,813.9208280079984,813.4220651779979,None,0,0,34,None,None,17,001,exponential,bryg,0.75-0.35,2021_May_20_1559,color_judgement_and_subjective_perception,2020.2.10,60.01548567561281,
3,0.75,testing,1000,1,,,,,,,,,0,0,0,0,,,,,4,0,16,3,814.5209467410023,None,k,0.5989744929975132,814.6209653080005,None,814.0206352110035,814.4376214540025,815.2374636280001,815.7377060630024,815.2374636280001,None,0,46,0,None,None,17,001,exponential,bryg,0.75-0.35,2021_May_20_1559,color_judgement_and_subjective_perception,2020.2.10,60.01548567561281,
1,0.75,testing,1000,1,,,,,,,,,0,0,0,0,,,,,4,1,17,1,816.3378843390019,None,f,0.6061829459940782,816.4377772399966,None,815.8375688279993,816.254489977,817.0718197899987,817.5720602759975,817.0718197899987,None,48,16,0,None,None,17,001,exponential,bryg,0.75-0.35,2021_May_20_1559,color_judgement_and_subjective_perception,2020.2.10,60.01548567561281,
1,0.75,testing,1000,1,,,,,,,,,0,0,0,0,,,,,4,2,18,1,818.1720778570016,None,f,0.5317211110013886,818.272245221,None,817.6719704179995,818.0889449259994,818.8222241480034,819.3226844820019,818.8222241480034,None,46,15,0,None,None,17,001,exponential,bryg,0.75-0.35,2021_May_20_1559,color_judgement_and_subjective_perception,2020.2.10,60.01548567561281,
2,0.75,testing,1000,1,,,,,,,,,0,0,0,0,,,,,4,3,19,2,819.9224916919993,None,j,0.805462260999775,820.022481758002,None,819.4223508270006,819.839153025001,820.8558603920028,821.3558834700016,820.8558603920028,None,38,38,0,None,None,17,001,exponential,bryg,0.75-0.35,2021_May_20_1559,color_judgement_and_subjective_perception,2020.2.10,60.01548567561281,
1,0.75,testing,1000,1,,,,,,,,,0,0,0,0,,,,,5,0,20,1,821.9403618979995,None,f,0.49973259800026426,822.0402253310021,None,821.4557962640029,821.8570390379973,822.5571744429981,823.0570608510025,822.5571744429981,None,43,14,0,None,None,17,001,exponential,bryg,0.75-0.35,2021_May_20_1559,color_judgement_and_subjective_perception,2020.2.10,60.01548567561281,
2,0.75,testing,1000,1,,,,,,,,,0,0,0,0,,,,,5,1,21,2,823.6572749260013,None,f,0.43876788699708413,823.7571720499982,None,823.1568945570034,823.5739947429975,824.2258228189967,824.7240033589987,824.2258228189967,None,35,35,0,None,None,17,001,exponential,bryg,0.75-0.35,2021_May_20_1559,color_judgement_and_subjective_perception,2020.2.10,60.01548567561281,
2,0.75,testing,1000,1,,,,,,,,,0,0,0,0,,,,,5,2,22,2,825.3239740249992,None,k,0.28379414600203745,825.4241020109985,None,824.8238088020007,825.240757380001,825.740691373001,826.240994132997,825.740691373001,None,37,37,0,None,None,17,001,exponential,bryg,0.75-0.35,2021_May_20_1559,color_judgement_and_subjective_perception,2020.2.10,60.01548567561281,
0,0.75,testing,1000,1,,,,,,,,,0,0,0,0,,,,,5,3,23,0,826.8252719669981,None,d,0.5587744150034268,826.9251896010028,None,826.3409021589978,826.7419980019986,827.5098939750023,828.0086136289974,827.5098939750023,None,0,0,35,None,None,17,001,exponential,bryg,0.75-0.35,2021_May_20_1559,color_judgement_and_subjective_perception,2020.2.10,60.01548567561281,
3,0.75,testing,1000,1,,,,,,,,,0,0,0,0,,,,,6,0,24,3,828.6088537370015,None,j,0.2790773089946015,828.7088818379998,None,828.108495116001,828.5254582929992,829.0101986349982,829.508973668002,829.0101986349982,None,0,45,0,None,None,17,001,exponential,bryg,0.75-0.35,2021_May_20_1559,color_judgement_and_subjective_perception,2020.2.10,60.01548567561281,
0,0.75,testing,1000,1,,,,,,,,,0,0,0,0,,,,,6,1,25,0,830.1089678860008,None,f,0.6189704950011219,830.2090054439977,None,829.6087944730025,830.0256795640016,830.8590156389982,831.3593490369967,830.8590156389982,None,0,0,36,None,None,17,001,exponential,bryg,0.75-0.35,2021_May_20_1559,color_judgement_and_subjective_perception,2020.2.10,60.01548567561281,
3,0.75,testing,1000,1,,,,,,,,,0,0,0,0,,,,,6,2,26,3,831.9435182379966,None,k,0.5523370629962301,832.0436056460021,None,831.4591128539978,831.8600942179983,832.6281752240029,833.126878144998,832.6281752240029,None,0,48,0,None,None,17,001,exponential,bryg,0.75-0.35,2021_May_20_1559,color_judgement_and_subjective_perception,2020.2.10,60.01548567561281,
2,0.75,testing,1000,1,,,,,,,,,0,0,0,0,,,,,6,3,27,2,833.6935766840033,None,j,0.650439920995268,833.7935303339982,None,833.2267779870017,833.6091213480031,834.467218044003,834.8091900500003,834.467218044003,None,43,43,0,None,None,17,001,exponential,bryg,0.75-0.35,2021_May_20_1559,color_judgement_and_subjective_perception,2020.2.10,60.01548567561281,
3,0.75,testing,1000,1,,,,,,,,,0,0,0,0,,,,,7,0,28,3,835.3939411440006,None,k,0.42201211800420424,835.493947445997,None,834.8937439790025,835.3106774309999,835.9438794250018,836.4442319579975,835.9438794250018,None,0,51,0,None,None,17,001,exponential,bryg,0.75-0.35,2021_May_20_1559,color_judgement_and_subjective_perception,2020.2.10,60.01548567561281,
0,0.75,testing,1000,1,,,,,,,,,0,0,0,0,,,,,7,1,29,0,837.0284057509998,None,d,0.5554588950035395,837.1285147759991,None,836.543963406999,836.945165461002,837.7115812179982,838.2118536010021,837.7115812179982,None,0,0,39,None,None,17,001,exponential,bryg,0.75-0.35,2021_May_20_1559,color_judgement_and_subjective_perception,2020.2.10,60.01548567561281,
1,0.75,testing,1000,1,,,,,,,,,0,0,0,0,,,,,7,2,30,1,838.8118472540009,None,f,0.4837730789950001,838.9121208549986,None,838.3116633410027,838.7287558340031,839.4287211710034,839.9288495579967,839.4287211710034,None,46,15,0,None,None,17,001,exponential,bryg,0.75-0.35,2021_May_20_1559,color_judgement_and_subjective_perception,2020.2.10,60.01548567561281,
2,0.75,testing,1000,1,,,,,,,,,0,0,0,0,,,,,7,3,31,2,840.5289189629984,None,k,0.6069926019990817,840.6289515480021,None,840.0286760500021,840.4455625030023,841.2638686330029,841.7467792399984,841.2638686330029,None,42,42,0,None,None,17,001,exponential,bryg,0.75-0.35,2021_May_20_1559,color_judgement_and_subjective_perception,2020.2.10,60.01548567561281,
0,0.75,testing,1000,1,,,,,,,,,0,0,0,0,,,,,8,0,32,0,842.3467445679998,None,d,0.48525338099716464,842.4467093799976,None,841.8465739640014,842.2634814280027,842.9650881470006,843.4635240849966,842.9650881470006,None,0,0,39,None,None,17,001,exponential,bryg,0.75-0.35,2021_May_20_1559,color_judgement_and_subjective_perception,2020.2.10,60.01548567561281,
3,0.75,testing,1000,1,,,,,,,,,0,0,0,0,,,,,8,1,33,3,844.0636521790002,None,j,0.5684182350014453,844.1635369540018,None,843.5633430610033,843.9802533670008,844.7649241449981,845.2638857839993,844.7649241449981,None,0,49,0,None,None,17,001,exponential,bryg,0.75-0.35,2021_May_20_1559,color_judgement_and_subjective_perception,2020.2.10,60.01548567561281,
3,0.75,testing,1000,1,,,,,,,,,0,0,0,0,,,,,8,2,34,3,845.8638378230025,None,k,0.8561563010007376,845.9637009380021,None,845.3635833410008,845.7804439009997,846.8494113909983,847.3481944759988,846.8494113909983,None,0,51,0,None,None,17,001,exponential,bryg,0.75-0.35,2021_May_20_1559,color_judgement_and_subjective_perception,2020.2.10,60.01548567561281,
2,0.75,testing,1000,1,,,,,,,,,0,0,0,0,,,,,8,3,35,2,847.9483091980001,None,j,0.4756993830014835,848.0482571039975,None,847.4479413009976,847.8651321770012,848.5483199930022,849.0485753030007,848.5483199930022,None,47,47,0,None,None,17,001,exponential,bryg,0.75-0.35,2021_May_20_1559,color_judgement_and_subjective_perception,2020.2.10,60.01548567561281,
3,0.75,testing,1000,1,,,,,,,,,0,0,0,0,,,,,9,0,36,3,849.6486192529992,None,k,0.6233690669978387,849.7485710100009,None,849.1483970819972,849.5652229089974,850.3986085669967,850.8986210810035,850.3986085669967,None,0,52,0,None,None,17,001,exponential,bryg,0.75-0.35,2021_May_20_1559,color_judgement_and_subjective_perception,2020.2.10,60.01548567561281,
2,0.75,testing,1000,1,,,,,,,,,0,0,0,0,,,,,9,1,37,2,851.4987495789974,None,j,0.38918775499769254,851.5987765829996,None,850.998711936998,851.4155287079993,852.0162576139992,852.5164576110037,852.0162576139992,None,46,46,0,None,None,17,001,exponential,bryg,0.75-0.35,2021_May_20_1559,color_judgement_and_subjective_perception,2020.2.10,60.01548567561281,
3,0.75,testing,1000,1,,,,,,,,,0,0,0,0,,,,,9,2,38,3,853.1164687510027,None,k,0.49935289999848465,853.2165758769988,None,852.6163519640031,853.0333128569982,853.733227636003,854.2335709489998,853.733227636003,None,0,49,0,None,None,17,001,exponential,bryg,0.75-0.35,2021_May_20_1559,color_judgement_and_subjective_perception,2020.2.10,60.01548567561281,
1,0.75,testing,1000,1,,,,,,,,,0,0,0,0,,,,,9,3,39,1,854.8336627820026,None,f,0.4784296270008781,854.9335350820038,None,854.3333172839993,854.7504784120028,855.4334361709989,855.933720316003,855.4334361709989,None,44,15,0,None,None,17,001,exponential,bryg,0.75-0.35,2021_May_20_1559,color_judgement_and_subjective_perception,2020.2.10,60.01548567561281,
3,0.75,testing,1000,1,,,,,,,,,0,0,0,0,,,,,10,0,40,3,856.5338057550034,None,k,0.5468414950009901,856.6251311809974,None,856.0335688069972,856.4504377330013,857.2012111700024,857.7014018970003,857.2012111700024,None,0,46,0,None,None,17,001,exponential,bryg,0.75-0.35,2021_May_20_1559,color_judgement_and_subjective_perception,2020.2.10,60.01548567561281,
1,0.75,testing,1000,1,,,,,,,,,0,0,0,0,,,,,10,1,41,1,858.301614338001,None,f,0.7063034700040589,858.4016511090013,None,857.8012047700031,858.2182283630027,859.1349646890012,859.6351378949985,859.1349646890012,None,41,14,0,None,None,17,001,exponential,bryg,0.75-0.35,2021_May_20_1559,color_judgement_and_subjective_perception,2020.2.10,60.01548567561281,
1,0.75,testing,1000,1,,,,,,,,,0,0,0,0,,,,,10,2,42,1,860.234923541997,None,f,0.6367698210015078,860.3351926030009,None,859.7350671960012,860.1517860230015,861.0017677819997,861.5019902600034,861.0017677819997,None,39,13,0,None,None,17,001,exponential,bryg,0.75-0.35,2021_May_20_1559,color_judgement_and_subjective_perception,2020.2.10,60.01548567561281,
0,0.75,testing,1000,1,,,,,,,,,0,0,0,0,,,,,10,3,43,0,862.086475422002,None,d,0.5374400670043542,862.1865061610006,None,861.6018381269969,862.0029206440013,862.7528558810009,863.253151871002,862.7528558810009,None,0,0,33,None,None,17,001,exponential,bryg,0.75-0.35,2021_May_20_1559,color_judgement_and_subjective_perception,2020.2.10,60.01548567561281,
0,0.75,testing,1000,1,,,,,,,,,0,0,0,0,,,,,11,0,44,0,863.8532344749983,None,d,0.6187125270007527,863.953251455001,None,863.3529423880027,863.7698705410003,864.6032161659969,865.1033345550022,864.6032161659969,None,0,0,31,None,None,17,001,exponential,bryg,0.75-0.35,2021_May_20_1559,color_judgement_and_subjective_perception,2020.2.10,60.01548567561281,
0,0.75,testing,1000,1,,,,,,,,,0,0,0,0,,,,,11,1,45,0,865.7034156509981,None,d,0.5684957359990221,865.8034636919983,None,865.2032437570015,865.6200214650016,866.4035021750024,866.8877986549996,866.4035021750024,None,0,0,29,None,None,17,001,exponential,bryg,0.75-0.35,2021_May_20_1559,color_judgement_and_subjective_perception,2020.2.10,60.01548567561281,
1,0.75,testing,1000,1,,,,,,,,,0,0,0,0,,,,,11,2,46,1,867.4878012609988,None,f,0.7759770359989488,867.5880010760011,None,866.9877422190038,867.4046484089995,868.3878784420012,868.8883462790036,868.3878784420012,None,34,11,0,None,None,17,001,exponential,bryg,0.75-0.35,2021_May_20_1559,color_judgement_and_subjective_perception,2020.2.10,60.01548567561281,
2,0.75,testing,1000,1,,,,,,,,,0,0,0,0,,,,,11,3,47,2,869.4883368829978,None,k,0.7597901609988185,869.5881677319994,None,868.987967219,869.4049867020003,870.3732393910032,870.8717350060033,870.3732393910032,None,37,37,0,None,None,17,001,exponential,bryg,0.75-0.35,2021_May_20_1559,color_judgement_and_subjective_perception,2020.2.10,60.01548567561281,
0,0.75,testing,1000,1,,,,,,,,,0,0,0,0,,,,,12,0,48,0,871.4717349139974,None,d,0.6880822889943374,871.5718828020035,None,870.9715319230017,871.3886066139967,872.290632203003,872.7895176090024,872.290632203003,None,0,0,27,None,None,17,001,exponential,bryg,0.75-0.35,2021_May_20_1559,color_judgement_and_subjective_perception,2020.2.10,60.01548567561281,
2,0.75,testing,1000,1,,,,,,,,,0,0,0,0,,,,,12,1,49,2,873.3895047320038,None,j,0.5382026150036836,873.4897148539967,None,872.8893004220008,873.3062107439982,874.0563701400024,874.5564777010004,874.0563701400024,None,38,38,0,None,None,17,001,exponential,bryg,0.75-0.35,2021_May_20_1559,color_judgement_and_subjective_perception,2020.2.10,60.01548567561281,
2,0.75,testing,1000,1,,,,,,,,,0,0,0,0,,,,,12,2,50,2,875.1564999089969,None,j,0.41150618599931477,875.2564982149997,None,874.6564245339978,875.0732582790006,875.6898869130018,876.1901615090028,875.6898869130018,None,38,38,0,None,None,17,001,exponential,bryg,0.75-0.35,2021_May_20_1559,color_judgement_and_subjective_perception,2020.2.10,60.01548567561281,
1,0.75,testing,1000,1,,,,,,,,,0,0,0,0,,,,,12,3,51,1,876.7743754449984,None,d,0.6014209790009772,876.8745770090027,None,876.2899957440022,876.6910047670026,877.5091166519996,878.0078114589996,877.5091166519996,None,30,10,0,None,None,17,001,exponential,bryg,0.75-0.35,2021_May_20_1559,color_judgement_and_subjective_perception,2020.2.10,60.01548567561281,
3,0.75,testing,1000,1,,,,,,,,,0,0,0,0,,,,,13,0,52,3,878.6079632870023,None,k,0.6960707749967696,878.7078916000028,None,878.1076121720034,878.5245685760019,879.425938583001,879.9247618169975,879.425938583001,None,0,37,0,None,None,17,001,exponential,bryg,0.75-0.35,2021_May_20_1559,color_judgement_and_subjective_perception,2020.2.10,60.01548567561281,
1,0.75,testing,1000,1,,,,,,,,,0,0,0,0,,,,,13,1,53,1,880.5248466539997,None,f,0.7390043039995362,880.6249256559968,None,880.024511196003,880.4414574620023,881.3914550690024,881.8758639989974,881.3914550690024,None,33,11,0,None,None,17,001,exponential,bryg,0.75-0.35,2021_May_20_1559,color_judgement_and_subjective_perception,2020.2.10,60.01548567561281,
0,0.75,testing,1000,1,,,,,,,,,0,0,0,0,,,,,13,2,54,0,882.4759286330009,None,None,-1,882.5760256569993,None,881.9757361439988,882.3925665850038,883.4930832309983,883.9929328979997,883.4930832309983,None,0,0,24,None,None,17,001,exponential,bryg,0.75-0.35,2021_May_20_1559,color_judgement_and_subjective_perception,2020.2.10,60.01548567561281,
2,0.75,testing,1000,1,,,,,,,,,0,0,0,0,,,,,13,3,55,2,884.5930447799983,None,j,0.6948474390010233,884.6931119939982,None,884.0927693420017,884.5097632809993,885.4108291149969,885.9098598950004,885.4108291149969,None,40,40,0,None,None,17,001,exponential,bryg,0.75-0.35,2021_May_20_1559,color_judgement_and_subjective_perception,2020.2.10,60.01548567561281,
2,0.75,testing,1000,1,,,,,,,,,0,0,0,0,,,,,14,0,56,2,886.5099923860034,None,j,0.4580000679998193,886.6099743239974,None,886.0096513840035,886.4266052169987,887.0940643069989,887.5942888420032,887.0940643069989,None,40,40,0,None,None,17,001,exponential,bryg,0.75-0.35,2021_May_20_1559,color_judgement_and_subjective_perception,2020.2.10,60.01548567561281,
3,0.75,testing,1000,1,,,,,,,,,0,0,0,0,,,,,14,1,57,3,888.1943593769975,None,k,0.5656241169999703,888.2943134689995,None,887.6940086190007,888.1110458870025,888.8776389949999,889.3779808780018,888.8776389949999,None,0,37,0,None,None,17,001,exponential,bryg,0.75-0.35,2021_May_20_1559,color_judgement_and_subjective_perception,2020.2.10,60.01548567561281,
1,0.75,testing,1000,1,,,,,,,,,0,0,0,0,,,,,14,2,58,1,889.9779133970005,None,d,0.8298491730020032,890.0781082300018,None,889.477811247998,889.8946202430016,890.9291751339988,891.4280923159968,890.9291751339988,None,31,10,0,None,None,17,001,exponential,bryg,0.75-0.35,2021_May_20_1559,color_judgement_and_subjective_perception,2020.2.10,60.01548567561281,
0,0.75,testing,1000,1,,,,,,,,,0,0,0,0,,,,,14,3,59,0,892.0125702470032,None,d,0.627274700003909,892.1125736250033,None,891.5280648409971,891.9291056950024,892.7639264750032,893.2626710499972,892.7639264750032,None,0,0,26,None,None,17,001,exponential,bryg,0.75-0.35,2021_May_20_1559,color_judgement_and_subjective_perception,2020.2.10,60.01548567561281,
1,0.75,testing,1000,1,,,,,,,,,0,0,0,0,,,,,15,0,60,1,893.8627202310017,None,f,0.6414858520001872,893.9624877090027,None,893.3624451229989,893.7793983950032,894.6292323520029,895.1296528120001,894.6292323520029,None,34,11,0,None,None,17,001,exponential,bryg,0.75-0.35,2021_May_20_1559,color_judgement_and_subjective_perception,2020.2.10,60.01548567561281,
3,0.75,testing,1000,1,,,,,,,,,0,0,0,0,,,,,15,1,61,3,895.729523836002,None,j,0.8304314729975886,895.8295291579998,None,895.2293632250003,895.646313436002,896.6820580319982,897.1809255600019,896.6820580319982,None,0,36,0,None,None,17,001,exponential,bryg,0.75-0.35,2021_May_20_1559,color_judgement_and_subjective_perception,2020.2.10,60.01548567561281,
0,0.75,testing,1000,1,,,,,,,,,0,0,0,0,,,,,15,2,62,0,897.7807725610037,None,d,0.5392618749974645,897.8806881630007,None,897.2802460849998,897.6974005930024,898.4492043589999,898.9475774200037,898.4492043589999,None,0,0,26,None,None,17,001,exponential,bryg,0.75-0.35,2021_May_20_1559,color_judgement_and_subjective_perception,2020.2.10,60.01548567561281,
3,0.75,testing,1000,1,,,,,,,,,0,0,0,0,,,,,15,3,63,3,899.5476569530001,None,j,0.7643393379985355,899.6476268920014,None,899.0474672240016,899.464518048997,900.4323288890009,900.9310525460023,900.4323288890009,None,0,39,0,None,None,17,001,exponential,bryg,0.75-0.35,2021_May_20_1559,color_judgement_and_subjective_perception,2020.2.10,60.01548567561281,
