color_idx_ind,target_acc,mode,response_deadline,block_number,trials_training.thisRepN,trials_training.thisTrialN,trials_training.thisN,trials_training.thisIndex,trials_training_deadline.thisRepN,trials_training_deadline.thisTrialN,trials_training_deadline.thisN,trials_training_deadline.thisIndex,blocks.thisRepN,blocks.thisTrialN,blocks.thisN,blocks.thisIndex,trials_staircase.thisRepN,trials_staircase.thisTrialN,trials_staircase.thisN,trials_staircase.thisIndex,trials.thisRepN,trials.thisTrialN,trials.thisN,trials.thisIndex,stimulus_ind.started,stimulus_ind.stopped,key_resp_ind.keys,key_resp_ind.rt,key_resp_ind.started,key_resp_ind.stopped,fixation_cross_1_ind.started,fixation_cross_1_ind.stopped,text.started,text.stopped,dummy_text.started,dummy_text.stopped,stim_ind_color_rgb_r,stim_ind_color_rgb_g,stim_ind_color_rgb_b,text_break_block.started,text_break_block.stopped,participant,session,accuracy_weighting,color_mapping,block_difficulties,date,expName,psychopyVersion,frameRate,
2,0.9,training,1000000000000,,0,0,0,0,,,,,,,,,,,,,,,,,60.643597361000005,None,j,3.2949101060000032,60.74364489700001,None,60.14401646200001,60.560462864,64.07208887400002,64.56185359000001,64.07208887400002,None,,,,,,18,001,exponential,gyrb,0.35-0.75,2021_May_21_1009,color_judgement_and_subjective_perception,2020.2.10,59.96174656431533,
0,0.9,training,1000000000000,,0,1,1,1,,,,,,,,,,,,,,,,,65.145465716,None,d,1.0105143080000119,65.24406247700001,None,64.661889574,65.06066743200002,66.26694273100001,66.55469505200001,66.26694273100001,None,,,,,,18,001,exponential,gyrb,0.35-0.75,2021_May_21_1009,color_judgement_and_subjective_perception,2020.2.10,59.96174656431533,
1,0.9,training,1000000000000,,0,2,2,2,,,,,,,,,,,,,,,,,66.89942046400002,None,f,0.898399349000016,66.956084547,None,66.613357341,66.85326855200002,67.879499542,68.37976203200002,67.879499542,None,,,,,,18,001,exponential,gyrb,0.35-0.75,2021_May_21_1009,color_judgement_and_subjective_perception,2020.2.10,59.96174656431533,
3,0.9,training,1000000000000,,0,3,3,3,,,,,,,,,,,,,,,,,68.96322646400002,None,k,0.8558562700000039,69.046644772,None,68.47969175500002,68.879864036,69.92868944000001,70.412302142,69.92868944000001,None,,,,,,18,001,exponential,gyrb,0.35-0.75,2021_May_21_1009,color_judgement_and_subjective_perception,2020.2.10,59.96174656431533,
2,0.9,training,1000000000000,,0,4,4,4,,,,,,,,,,,,,,,,,70.79675573600001,None,d,0.7997506439999995,70.85475234600001,None,70.51196308200001,70.748388125,71.671561772,72.163778311,71.671561772,None,,,,,,18,001,exponential,gyrb,0.35-0.75,2021_May_21_1009,color_judgement_and_subjective_perception,2020.2.10,59.96174656431533,
1,0.9,training,1000000000000,,0,5,5,5,,,,,,,,,,,,,,,,,72.74801481300001,None,f,0.8064990680000221,72.848053788,None,72.262351455,72.66473092600002,73.681222151,74.181484317,73.681222151,None,,,,,,18,001,exponential,gyrb,0.35-0.75,2021_May_21_1009,color_judgement_and_subjective_perception,2020.2.10,59.96174656431533,
3,0.9,training,1000000000000,,0,6,6,6,,,,,,,,,,,,,,,,,74.781618083,None,k,0.6848442190000128,74.881727513,None,74.281613966,74.698393126,75.59825350000001,76.09841612200002,75.59825350000001,None,,,,,,18,001,exponential,gyrb,0.35-0.75,2021_May_21_1009,color_judgement_and_subjective_perception,2020.2.10,59.96174656431533,
1,0.9,training,1000000000000,,0,7,7,7,,,,,,,,,,,,,,,,,76.69853575700002,None,f,0.863994837000007,76.798562101,None,76.198467221,76.615180107,77.68270102000001,78.18304821100001,77.68270102000001,None,,,,,,18,001,exponential,gyrb,0.35-0.75,2021_May_21_1009,color_judgement_and_subjective_perception,2020.2.10,59.96174656431533,
3,0.9,training,1000000000000,,0,8,8,8,,,,,,,,,,,,,,,,,78.783098616,None,k,0.7794902450000052,78.88305338300002,None,78.28291547900001,78.69967135700001,79.683114025,80.183387575,79.683114025,None,,,,,,18,001,exponential,gyrb,0.35-0.75,2021_May_21_1009,color_judgement_and_subjective_perception,2020.2.10,59.96174656431533,
0,0.9,training,1000000000000,,0,9,9,9,,,,,,,,,,,,,,,,,80.78333258100001,None,d,0.7391759850000028,80.883377848,None,80.28321663300001,80.700089608,81.650070466,82.150172832,81.650070466,None,,,,,,18,001,exponential,gyrb,0.35-0.75,2021_May_21_1009,color_judgement_and_subjective_perception,2020.2.10,59.96174656431533,
1,0.9,training,1000000000000,,0,10,10,10,,,,,,,,,,,,,,,,,82.734364232,None,f,0.6999709719999885,82.834562392,None,82.250175882,82.651096941,83.551125976,84.05140668700001,83.551125976,None,,,,,,18,001,exponential,gyrb,0.35-0.75,2021_May_21_1009,color_judgement_and_subjective_perception,2020.2.10,59.96174656431533,
3,0.9,training,1000000000000,,0,11,11,11,,,,,,,,,,,,,,,,,84.65161740700002,None,k,0.6148930250000149,84.751641701,None,84.15134750900002,84.568150544,85.38488516299999,85.884927407,85.38488516299999,None,,,,,,18,001,exponential,gyrb,0.35-0.75,2021_May_21_1009,color_judgement_and_subjective_perception,2020.2.10,59.96174656431533,
1,0.9,training,1000000000000,,0,12,12,12,,,,,,,,,,,,,,,,,86.484979623,None,f,0.6454619219999813,86.58512205800001,None,85.984957115,86.40170092500001,87.25178046,87.736054391,87.25178046,None,,,,,,18,001,exponential,gyrb,0.35-0.75,2021_May_21_1009,color_judgement_and_subjective_perception,2020.2.10,59.96174656431533,
2,0.9,training,1000000000000,,0,13,13,13,,,,,,,,,,,,,,,,,88.33590902600001,None,d,0.7144145780000031,88.436131763,None,87.836080887,88.25285117900002,89.16958147500002,89.669725445,89.16958147500002,None,,,,,,18,001,exponential,gyrb,0.35-0.75,2021_May_21_1009,color_judgement_and_subjective_perception,2020.2.10,59.96174656431533,
3,0.9,training,1000000000000,,0,14,14,14,,,,,,,,,,,,,,,,,90.269735251,None,k,1.5327418040000111,90.36982645900001,None,89.769754074,90.18648277000001,91.919911801,92.404262186,91.919911801,None,,,,,,18,001,exponential,gyrb,0.35-0.75,2021_May_21_1009,color_judgement_and_subjective_perception,2020.2.10,59.96174656431533,
0,0.9,training,1000000000000,,0,15,15,15,,,,,,,,,,,,,,,,,93.004295002,None,d,0.7182828400000005,93.104247221,None,92.504197209,92.921083836,93.854283948,94.35447327800001,93.854283948,None,,,,,,18,001,exponential,gyrb,0.35-0.75,2021_May_21_1009,color_judgement_and_subjective_perception,2020.2.10,59.96174656431533,
2,0.9,training,1000000000000,,0,16,16,16,,,,,,,,,,,,,,,,,94.95472610400002,None,j,0.823915291999981,95.054619176,None,94.454320885,94.87118059699999,95.90441144200001,96.40472999,95.90441144200001,None,,,,,,18,001,exponential,gyrb,0.35-0.75,2021_May_21_1009,color_judgement_and_subjective_perception,2020.2.10,59.96174656431533,
0,0.9,training,1000000000000,,0,17,17,17,,,,,,,,,,,,,,,,,97.00497165099999,None,d,0.7494430360000024,97.105035615,None,96.504773482,96.92171975500001,97.87243265900001,98.372338005,97.87243265900001,None,,,,,,18,001,exponential,gyrb,0.35-0.75,2021_May_21_1009,color_judgement_and_subjective_perception,2020.2.10,59.96174656431533,
2,0.9,training,1000000000000,,0,18,18,18,,,,,,,,,,,,,,,,,98.97271936900002,None,j,0.48579129000000876,99.072745103,None,98.472622692,98.889432797,99.589533887,100.089646809,99.589533887,None,,,,,,18,001,exponential,gyrb,0.35-0.75,2021_May_21_1009,color_judgement_and_subjective_perception,2020.2.10,59.96174656431533,
1,0.9,training,1000000000000,,0,19,19,19,,,,,,,,,,,,,,,,,100.68968824600002,None,f,0.28887913500000195,100.78965653499999,None,100.18960154400001,100.60644266000001,101.10620876100002,101.606471729,101.10620876100002,None,,,,,,18,001,exponential,gyrb,0.35-0.75,2021_May_21_1009,color_judgement_and_subjective_perception,2020.2.10,59.96174656431533,
3,0.9,training,1000000000000,,0,20,20,20,,,,,,,,,,,,,,,,,102.20655347700001,None,d,1.3312009219999936,102.29141427500001,None,101.70636767700002,102.123304347,103.64077286300001,104.14101836000002,103.64077286300001,None,,,,,,18,001,exponential,gyrb,0.35-0.75,2021_May_21_1009,color_judgement_and_subjective_perception,2020.2.10,59.96174656431533,
0,0.9,training,1000000000000,,0,21,21,21,,,,,,,,,,,,,,,,,104.74127287700001,None,d,1.3333576480000033,104.84116757700001,None,104.24099973199999,104.65780830500002,106.19118555500002,106.691453573,106.19118555500002,None,,,,,,18,001,exponential,gyrb,0.35-0.75,2021_May_21_1009,color_judgement_and_subjective_perception,2020.2.10,59.96174656431533,
2,0.9,training,1000000000000,,0,22,22,22,,,,,,,,,,,,,,,,,107.28301811000001,None,j,0.5507709930000146,107.375704354,None,106.791355814,107.208134851,107.95890835600001,108.459100279,107.95890835600001,None,,,,,,18,001,exponential,gyrb,0.35-0.75,2021_May_21_1009,color_judgement_and_subjective_perception,2020.2.10,59.96174656431533,
0,0.9,training,1000000000000,,0,23,23,23,,,,,,,,,,,,,,,,,109.059268778,None,k,0.5671464259999937,109.15933765500002,None,108.559046762,108.975881903,109.759247787,110.259500211,109.759247787,None,,,,,,18,001,exponential,gyrb,0.35-0.75,2021_May_21_1009,color_judgement_and_subjective_perception,2020.2.10,59.96174656431533,
3,0.9,training,1000000000000,,0,24,24,24,,,,,,,,,,,,,,,,,110.859596481,None,j,1.183008175000026,110.959518733,None,110.35945423700001,110.77613165000001,112.15952824200001,112.643984145,112.15952824200001,None,,,,,,18,001,exponential,gyrb,0.35-0.75,2021_May_21_1009,color_judgement_and_subjective_perception,2020.2.10,59.96174656431533,
1,0.9,training,1000000000000,,0,25,25,25,,,,,,,,,,,,,,,,,113.24399611599999,None,f,0.8625669250000101,113.34397884100001,None,112.74398588300001,113.160703124,114.227476175,114.727661994,114.227476175,None,,,,,,18,001,exponential,gyrb,0.35-0.75,2021_May_21_1009,color_judgement_and_subjective_perception,2020.2.10,59.96174656431533,
0,0.9,training,1000000000000,,0,26,26,26,,,,,,,,,,,,,,,,,115.32780951600002,None,d,0.47469827300000134,115.42785408300001,None,114.82778126800001,115.24445218000001,115.92754117900002,116.42784335200001,115.92754117900002,None,,,,,,18,001,exponential,gyrb,0.35-0.75,2021_May_21_1009,color_judgement_and_subjective_perception,2020.2.10,59.96174656431533,
2,0.9,training,1000000000000,,0,27,27,27,,,,,,,,,,,,,,,,,117.02791228400001,None,j,0.39857589799999005,117.12798119,None,116.527801661,116.94460301400001,117.54559001400001,118.045523386,117.54559001400001,None,,,,,,18,001,exponential,gyrb,0.35-0.75,2021_May_21_1009,color_judgement_and_subjective_perception,2020.2.10,59.96174656431533,
3,0.9,training,1000000000000,,0,28,28,28,,,,,,,,,,,,,,,,,118.64562915700002,None,k,0.33285583899998983,118.74565115400002,None,118.14561118000002,118.56226910900001,119.095494396,119.595977862,119.095494396,None,,,,,,18,001,exponential,gyrb,0.35-0.75,2021_May_21_1009,color_judgement_and_subjective_perception,2020.2.10,59.96174656431533,
2,0.9,training,1000000000000,,0,29,29,29,,,,,,,,,,,,,,,,,120.195881422,None,j,0.8705514300000061,120.29597340400001,None,119.695782284,120.11266185699999,121.19591414599999,121.69621575500001,121.19591414599999,None,,,,,,18,001,exponential,gyrb,0.35-0.75,2021_May_21_1009,color_judgement_and_subjective_perception,2020.2.10,59.96174656431533,
0,0.9,training,1000000000000,,0,30,30,30,,,,,,,,,,,,,,,,,122.28766415,None,d,0.5938678050000021,122.38059799900002,None,121.796253077,122.212871961,122.99707205400001,123.497224505,122.99707205400001,None,,,,,,18,001,exponential,gyrb,0.35-0.75,2021_May_21_1009,color_judgement_and_subjective_perception,2020.2.10,59.96174656431533,
1,0.9,training,1000000000000,,0,31,31,31,,,,,,,,,,,,,,,,,124.09733344800001,None,f,0.2650728990000175,124.19739721700002,None,123.597121838,124.013997541,124.48070077999999,124.980813755,124.48070077999999,None,,,,,,18,001,exponential,gyrb,0.35-0.75,2021_May_21_1009,color_judgement_and_subjective_perception,2020.2.10,59.96174656431533,
2,0.9,training,1000,,,,,,0,0,0,0,,,,,,,,,,,,,150.97211682300002,None,j,0.7663263249999943,151.072236557,None,150.475169237,150.888992444,151.855483317,152.340047335,151.855483317,None,,,,,,18,001,exponential,gyrb,0.35-0.75,2021_May_21_1009,color_judgement_and_subjective_perception,2020.2.10,59.96174656431533,
3,0.9,training,1000,,,,,,0,1,1,1,,,,,,,,,,,,,152.94008390099998,None,k,0.37452625199998124,153.04001513999998,None,152.439820166,152.85664917500003,153.439797791,153.94017643300003,153.439797791,None,,,,,,18,001,exponential,gyrb,0.35-0.75,2021_May_21_1009,color_judgement_and_subjective_perception,2020.2.10,59.96174656431533,
0,0.9,training,1000,,,,,,0,2,2,2,,,,,,,,,,,,,154.54036830900003,None,d,0.7101668130000007,154.640364633,None,154.03995100999998,154.45692265500003,155.37376135,155.873555232,155.37376135,None,,,,,,18,001,exponential,gyrb,0.35-0.75,2021_May_21_1009,color_judgement_and_subjective_perception,2020.2.10,59.96174656431533,
3,0.9,training,1000,,,,,,0,3,3,3,,,,,,,,,,,,,156.47393921000003,None,k,0.5529937400000051,156.57355109500003,None,155.973641799,156.39030402000003,157.157245381,157.641822779,157.157245381,None,,,,,,18,001,exponential,gyrb,0.35-0.75,2021_May_21_1009,color_judgement_and_subjective_perception,2020.2.10,59.96174656431533,
2,0.9,training,1000,,,,,,0,4,4,4,,,,,,,,,,,,,158.241504465,None,j,0.5930726739999841,158.34150214100003,None,157.741450488,158.15822568500005,158.95816753000003,159.45844478700002,158.95816753000003,None,,,,,,18,001,exponential,gyrb,0.35-0.75,2021_May_21_1009,color_judgement_and_subjective_perception,2020.2.10,59.96174656431533,
3,0.9,training,1000,,,,,,0,5,5,5,,,,,,,,,,,,,160.058651037,None,k,0.6399237649999918,160.15861501900002,None,159.558445495,159.97534941600003,160.82534267,161.32545323600004,160.82534267,None,,,,,,18,001,exponential,gyrb,0.35-0.75,2021_May_21_1009,color_judgement_and_subjective_perception,2020.2.10,59.96174656431533,
0,0.9,training,1000,,,,,,0,6,6,6,,,,,,,,,,,,,161.92557369500003,None,d,0.6129123389999904,162.025625767,None,161.42535876,161.84218957800005,162.659921279,163.15974119000003,162.659921279,None,,,,,,18,001,exponential,gyrb,0.35-0.75,2021_May_21_1009,color_judgement_and_subjective_perception,2020.2.10,59.96174656431533,
1,0.9,training,1000,,,,,,0,7,7,7,,,,,,,,,,,,,163.75989978900003,None,f,0.43460710799996605,163.85995181000004,None,163.25972671600005,163.67666540200003,164.32668715300002,164.826812862,164.32668715300002,None,,,,,,18,001,exponential,gyrb,0.35-0.75,2021_May_21_1009,color_judgement_and_subjective_perception,2020.2.10,59.96174656431533,
0,0.9,training,1000,,,,,,0,8,8,8,,,,,,,,,,,,,165.426841168,None,d,0.6157031980000056,165.52683006400002,None,164.926669919,165.343555949,166.16003627100002,166.660446154,166.16003627100002,None,,,,,,18,001,exponential,gyrb,0.35-0.75,2021_May_21_1009,color_judgement_and_subjective_perception,2020.2.10,59.96174656431533,
1,0.9,training,1000,,,,,,0,9,9,9,,,,,,,,,,,,,167.260596851,None,f,0.47768792099998336,167.344746681,None,166.760377899,167.177310165,167.844606961,168.344796867,167.844606961,None,,,,,,18,001,exponential,gyrb,0.35-0.75,2021_May_21_1009,color_judgement_and_subjective_perception,2020.2.10,59.96174656431533,
0,0.9,training,1000,,,,,,0,10,10,10,,,,,,,,,,,,,168.94489830100002,None,d,0.6576317170000152,169.044909065,None,168.444818726,168.86151763600003,169.72821283300004,170.22849572800004,169.72821283300004,None,,,,,,18,001,exponential,gyrb,0.35-0.75,2021_May_21_1009,color_judgement_and_subjective_perception,2020.2.10,59.96174656431533,
3,0.9,training,1000,,,,,,0,11,11,11,,,,,,,,,,,,,170.82868594800004,None,k,0.4778514429999632,170.928633864,None,170.328531753,170.745211708,171.428652065,171.92870618700005,171.428652065,None,,,,,,18,001,exponential,gyrb,0.35-0.75,2021_May_21_1009,color_judgement_and_subjective_perception,2020.2.10,59.96174656431533,
0,0.9,training,1000,,,,,,0,12,12,12,,,,,,,,,,,,,172.513122592,None,d,0.6894095890000358,172.613096037,None,172.028787567,172.42983567000005,173.329456532,173.82983054000005,173.329456532,None,,,,,,18,001,exponential,gyrb,0.35-0.75,2021_May_21_1009,color_judgement_and_subjective_perception,2020.2.10,59.96174656431533,
1,0.9,training,1000,,,,,,0,13,13,13,,,,,,,,,,,,,174.429945632,None,None,-1,174.52995748700005,None,173.929602967,174.346421807,175.42993323900004,175.93010320900004,175.42993323900004,None,,,,,,18,001,exponential,gyrb,0.35-0.75,2021_May_21_1009,color_judgement_and_subjective_perception,2020.2.10,59.96174656431533,
0,0.9,training,1000,,,,,,0,14,14,14,,,,,,,,,,,,,176.53018382600004,None,d,0.5522663369999918,176.63025069100001,None,176.02992996900002,176.44699248800003,177.213506101,177.69791550300005,177.213506101,None,,,,,,18,001,exponential,gyrb,0.35-0.75,2021_May_21_1009,color_judgement_and_subjective_perception,2020.2.10,59.96174656431533,
2,0.9,training,1000,,,,,,0,15,15,15,,,,,,,,,,,,,178.29790194100002,None,k,0.37651844700002357,178.39802488100003,None,177.79789585000003,178.214544305,178.79780051800003,179.298098492,178.79780051800003,None,,,,,,18,001,exponential,gyrb,0.35-0.75,2021_May_21_1009,color_judgement_and_subjective_perception,2020.2.10,59.96174656431533,
3,0.9,training,1000,,,,,,0,16,16,16,,,,,,,,,,,,,179.898249766,None,k,0.7362128699999744,179.99832208600003,None,179.39811120900004,179.81462937000003,180.764780556,181.26508189100002,180.764780556,None,,,,,,18,001,exponential,gyrb,0.35-0.75,2021_May_21_1009,color_judgement_and_subjective_perception,2020.2.10,59.96174656431533,
1,0.9,training,1000,,,,,,0,17,17,17,,,,,,,,,,,,,181.86509887700004,None,d,0.6493901229999892,181.965126354,None,181.364943406,181.781865128,182.63261053900004,183.132773869,182.63261053900004,None,,,,,,18,001,exponential,gyrb,0.35-0.75,2021_May_21_1009,color_judgement_and_subjective_perception,2020.2.10,59.96174656431533,
2,0.9,training,1000,,,,,,0,18,18,18,,,,,,,,,,,,,183.732865188,None,k,0.6296452409999915,183.832916534,None,183.232728484,183.64960085300004,184.482995362,184.983288765,184.482995362,None,,,,,,18,001,exponential,gyrb,0.35-0.75,2021_May_21_1009,color_judgement_and_subjective_perception,2020.2.10,59.96174656431533,
3,0.9,training,1000,,,,,,0,19,19,19,,,,,,,,,,,,,185.58315995100003,None,k,0.6111029869999811,185.68333941500003,None,185.08316792,185.49989002,186.31653775200004,186.81676383900003,186.31653775200004,None,,,,,,18,001,exponential,gyrb,0.35-0.75,2021_May_21_1009,color_judgement_and_subjective_perception,2020.2.10,59.96174656431533,
1,0.9,training,1000,,,,,,0,20,20,20,,,,,,,,,,,,,187.40096013600004,None,f,0.5696532410000259,187.50092898900004,None,186.916700397,187.318093169,188.100999839,188.60108864900002,188.100999839,None,,,,,,18,001,exponential,gyrb,0.35-0.75,2021_May_21_1009,color_judgement_and_subjective_perception,2020.2.10,59.96174656431533,
3,0.9,training,1000,,,,,,0,21,21,21,,,,,,,,,,,,,189.20128121800002,None,k,0.8653075049999757,189.30122232900004,None,188.70101101,189.117974361,190.18480040600002,190.68490045000004,190.18480040600002,None,,,,,,18,001,exponential,gyrb,0.35-0.75,2021_May_21_1009,color_judgement_and_subjective_perception,2020.2.10,59.96174656431533,
2,0.9,training,1000,,,,,,0,22,22,22,,,,,,,,,,,,,191.28508722100003,None,j,0.6136449420000076,191.38490327,None,190.78477863900002,191.20153655300004,192.01824066700004,192.50272584500004,192.01824066700004,None,,,,,,18,001,exponential,gyrb,0.35-0.75,2021_May_21_1009,color_judgement_and_subjective_perception,2020.2.10,59.96174656431533,
0,0.9,training,1000,,,,,,0,23,23,23,,,,,,,,,,,,,193.10270705700003,None,d,0.8197256349999975,193.20282055,None,192.60260364200002,193.019421442,194.052619853,194.553098116,194.052619853,None,,,,,,18,001,exponential,gyrb,0.35-0.75,2021_May_21_1009,color_judgement_and_subjective_perception,2020.2.10,59.96174656431533,
1,0.9,training,1000,,,,,,0,24,24,24,,,,,,,,,,,,,195.15318695300004,None,f,0.3852581919999807,195.25326048200003,None,194.65301299600003,195.069790447,195.66951867400002,196.205818733,195.66951867400002,None,,,,,,18,001,exponential,gyrb,0.35-0.75,2021_May_21_1009,color_judgement_and_subjective_perception,2020.2.10,59.96174656431533,
2,0.9,training,1000,,,,,,0,25,25,25,,,,,,,,,,,,,196.78646601100002,None,j,0.7201022479999892,196.88643107000001,None,196.286492855,196.703319029,197.63753069700005,198.13749134900002,197.63753069700005,None,,,,,,18,001,exponential,gyrb,0.35-0.75,2021_May_21_1009,color_judgement_and_subjective_perception,2020.2.10,59.96174656431533,
1,0.9,training,1000,,,,,,0,26,26,26,,,,,,,,,,,,,198.73773778000003,None,f,0.5288840840000262,198.837648822,None,198.237579176,198.65432209600004,199.38765393900002,199.88788419900004,199.38765393900002,None,,,,,,18,001,exponential,gyrb,0.35-0.75,2021_May_21_1009,color_judgement_and_subjective_perception,2020.2.10,59.96174656431533,
2,0.9,training,1000,,,,,,0,27,27,27,,,,,,,,,,,,,200.48819269300003,None,j,0.8347489429999655,200.58789025100003,None,199.98789962300003,200.40462131700002,201.454540634,201.95486371700002,201.454540634,None,,,,,,18,001,exponential,gyrb,0.35-0.75,2021_May_21_1009,color_judgement_and_subjective_perception,2020.2.10,59.96174656431533,
0,0.9,training,1000,,,,,,0,28,28,28,,,,,,,,,,,,,202.539078302,None,d,0.47952630700001464,202.63902871600004,None,202.054709334,202.455762199,203.13920739900004,203.639075203,203.13920739900004,None,,,,,,18,001,exponential,gyrb,0.35-0.75,2021_May_21_1009,color_judgement_and_subjective_perception,2020.2.10,59.96174656431533,
3,0.9,training,1000,,,,,,0,29,29,29,,,,,,,,,,,,,204.23940422700002,None,k,0.339130248999993,204.33939568600005,None,203.739162066,204.155975313,204.70593791200002,205.20614012800002,204.70593791200002,None,,,,,,18,001,exponential,gyrb,0.35-0.75,2021_May_21_1009,color_judgement_and_subjective_perception,2020.2.10,59.96174656431533,
1,0.9,training,1000,,,,,,0,30,30,30,,,,,,,,,,,,,205.80620508000004,None,f,0.372416826999995,205.90615587500002,None,205.306321798,205.72285037,206.30640417200004,206.806400624,206.30640417200004,None,,,,,,18,001,exponential,gyrb,0.35-0.75,2021_May_21_1009,color_judgement_and_subjective_perception,2020.2.10,59.96174656431533,
0,0.9,training,1000,,,,,,0,31,31,31,,,,,,,,,,,,,207.39062465300003,None,d,0.5478672339999662,207.49071017400001,None,206.90622096500005,207.31450986200002,208.057350026,208.557373594,208.057350026,None,,,,,,18,001,exponential,gyrb,0.35-0.75,2021_May_21_1009,color_judgement_and_subjective_perception,2020.2.10,59.96174656431533,
2,0.9,training,1000,,,,,,0,32,32,32,,,,,,,,,,,,,209.157616458,None,j,0.8368234730000381,209.257698725,None,208.65743761700003,209.07417616200001,210.12429269300003,210.62408615600003,210.12429269300003,None,,,,,,18,001,exponential,gyrb,0.35-0.75,2021_May_21_1009,color_judgement_and_subjective_perception,2020.2.10,59.96174656431533,
3,0.9,training,1000,,,,,,0,33,33,33,,,,,,,,,,,,,211.224443522,None,d,0.7220170170000415,211.32454394400003,None,210.72428765800004,211.141160941,212.07436143800004,212.55891805000005,212.07436143800004,None,,,,,,18,001,exponential,gyrb,0.35-0.75,2021_May_21_1009,color_judgement_and_subjective_perception,2020.2.10,59.96174656431533,
2,0.9,training,1000,,,,,,0,34,34,34,,,,,,,,,,,,,213.159011426,None,j,0.6756968239999992,213.258953049,None,212.65882775400001,213.07570524200003,213.95886402500003,214.459256143,213.95886402500003,None,,,,,,18,001,exponential,gyrb,0.35-0.75,2021_May_21_1009,color_judgement_and_subjective_perception,2020.2.10,59.96174656431533,
0,0.9,training,1000,,,,,,0,35,35,35,,,,,,,,,,,,,215.05934037600002,None,d,0.5430409219999888,215.15949822200002,None,214.559272802,214.976119848,215.725978279,216.226150055,215.725978279,None,,,,,,18,001,exponential,gyrb,0.35-0.75,2021_May_21_1009,color_judgement_and_subjective_perception,2020.2.10,59.96174656431533,
1,0.9,training,1000,,,,,,0,36,36,36,,,,,,,,,,,,,216.82594756600002,None,f,0.2725856509999858,216.92598907500002,None,216.32606345,216.74287185600002,217.22616255900004,217.710332069,217.22616255900004,None,,,,,,18,001,exponential,gyrb,0.35-0.75,2021_May_21_1009,color_judgement_and_subjective_perception,2020.2.10,59.96174656431533,
2,0.9,training,1000,,,,,,0,37,37,37,,,,,,,,,,,,,218.31066653300002,None,j,0.5799839929999848,218.41054518800001,None,217.810270042,218.227168786,219.01041846100003,219.510845158,219.01041846100003,None,,,,,,18,001,exponential,gyrb,0.35-0.75,2021_May_21_1009,color_judgement_and_subjective_perception,2020.2.10,59.96174656431533,
3,0.9,training,1000,,,,,,0,38,38,38,,,,,,,,,,,,,220.111066994,None,k,0.49157665299998143,220.21096707600003,None,219.610885192,220.02750891100004,220.72753121800002,221.22771552,220.72753121800002,None,,,,,,18,001,exponential,gyrb,0.35-0.75,2021_May_21_1009,color_judgement_and_subjective_perception,2020.2.10,59.96174656431533,
1,0.9,training,1000,,,,,,0,39,39,39,,,,,,,,,,,,,221.827797636,None,f,0.558621770000002,221.92789359,None,221.32763608300002,221.74444933900003,222.512094735,223.01224997900005,222.512094735,None,,,,,,18,001,exponential,gyrb,0.35-0.75,2021_May_21_1009,color_judgement_and_subjective_perception,2020.2.10,59.96174656431533,
0,0.9,training,1000,,,,,,0,40,40,40,,,,,,,,,,,,,223.612167413,None,d,0.5422717980000016,223.712299835,None,223.11197513000002,223.52882244300002,224.27869027600002,224.77917173100002,224.27869027600002,None,,,,,,18,001,exponential,gyrb,0.35-0.75,2021_May_21_1009,color_judgement_and_subjective_perception,2020.2.10,59.96174656431533,
3,0.9,training,1000,,,,,,0,41,41,41,,,,,,,,,,,,,225.37941071400002,None,j,0.783067764000009,225.479481991,None,224.87933095,225.29588760000001,226.279095852,226.77942236800004,226.279095852,None,,,,,,18,001,exponential,gyrb,0.35-0.75,2021_May_21_1009,color_judgement_and_subjective_perception,2020.2.10,59.96174656431533,
1,0.9,training,1000,,,,,,0,42,42,42,,,,,,,,,,,,,227.36371453200002,None,f,0.550724617999947,227.463718453,None,226.879334379,227.295884311,228.046791982,228.54704567000005,228.046791982,None,,,,,,18,001,exponential,gyrb,0.35-0.75,2021_May_21_1009,color_judgement_and_subjective_perception,2020.2.10,59.96174656431533,
3,0.9,training,1000,,,,,,0,43,43,43,,,,,,,,,,,,,229.146995855,None,k,0.279433460000007,229.247072285,None,228.64711503900003,229.06381774800002,229.547168102,230.04751081200004,229.547168102,None,,,,,,18,001,exponential,gyrb,0.35-0.75,2021_May_21_1009,color_judgement_and_subjective_perception,2020.2.10,59.96174656431533,
1,0.9,training,1000,,,,,,0,44,44,44,,,,,,,,,,,,,230.64751281600002,None,f,0.5311258400000156,230.74743226000004,None,230.14747032500003,230.56404939500004,231.29748980300002,231.79780174900003,231.29748980300002,None,,,,,,18,001,exponential,gyrb,0.35-0.75,2021_May_21_1009,color_judgement_and_subjective_perception,2020.2.10,59.96174656431533,
2,0.9,training,1000,,,,,,0,45,45,45,,,,,,,,,,,,,232.38200130300004,None,j,0.8766661589999671,232.481881535,None,231.89759867200002,232.312987361,233.381876756,233.88210449800005,233.381876756,None,,,,,,18,001,exponential,gyrb,0.35-0.75,2021_May_21_1009,color_judgement_and_subjective_perception,2020.2.10,59.96174656431533,
0,0.9,training,1000,,,,,,0,46,46,46,,,,,,,,,,,,,234.482253936,None,d,0.5524955180000006,234.582027751,None,233.98182836400002,234.39885198400003,235.165585308,235.66565037000004,235.165585308,None,,,,,,18,001,exponential,gyrb,0.35-0.75,2021_May_21_1009,color_judgement_and_subjective_perception,2020.2.10,59.96174656431533,
2,0.9,training,1000,,,,,,0,47,47,47,,,,,,,,,,,,,236.26586962000005,None,j,0.4406282780000197,236.36593274300003,None,235.76565058300002,236.18234353100001,236.832436111,237.323987585,236.832436111,None,,,,,,18,001,exponential,gyrb,0.35-0.75,2021_May_21_1009,color_judgement_and_subjective_perception,2020.2.10,59.96174656431533,
0,0.9,training,1000,,,,,,0,48,48,48,,,,,,,,,,,,,237.91693691400002,None,d,0.5737944840000182,238.01679911400004,None,237.41692000900002,237.833711946,238.61682655700002,239.11696550800002,238.61682655700002,None,,,,,,18,001,exponential,gyrb,0.35-0.75,2021_May_21_1009,color_judgement_and_subjective_perception,2020.2.10,59.96174656431533,
3,0.9,training,1000,,,,,,0,49,49,49,,,,,,,,,,,,,239.71719905100002,None,k,0.3813053779999791,239.81724949600004,None,239.21720654400002,239.633890711,240.21704248400005,240.71738255000002,240.21704248400005,None,,,,,,18,001,exponential,gyrb,0.35-0.75,2021_May_21_1009,color_judgement_and_subjective_perception,2020.2.10,59.96174656431533,
1,0.9,training,1000,,,,,,0,50,50,50,,,,,,,,,,,,,241.31727318600002,None,f,0.42116935899997543,241.417366071,None,240.81722428300003,241.23400234300004,241.867370199,242.35171460600003,241.867370199,None,,,,,,18,001,exponential,gyrb,0.35-0.75,2021_May_21_1009,color_judgement_and_subjective_perception,2020.2.10,59.96174656431533,
1,0.9,training,1000,,,,,,0,51,51,51,,,,,,,,,,,,,242.951665661,None,f,0.3626660219999849,243.05188369500001,None,242.45160357100002,242.86851606600004,243.434984875,243.935191991,243.434984875,None,,,,,,18,001,exponential,gyrb,0.35-0.75,2021_May_21_1009,color_judgement_and_subjective_perception,2020.2.10,59.96174656431533,
1,0.9,training,1000,,,,,,0,52,52,52,,,,,,,,,,,,,244.535268568,None,f,0.387027216999968,244.635529635,None,244.03514202500003,244.45210186400004,245.052132342,245.552258536,245.052132342,None,,,,,,18,001,exponential,gyrb,0.35-0.75,2021_May_21_1009,color_judgement_and_subjective_perception,2020.2.10,59.96174656431533,
0,0.9,training,1000,,,,,,0,53,53,53,,,,,,,,,,,,,246.15227601200002,None,d,0.4261617079999951,246.25238829900002,None,245.65210949800002,246.06882904500003,246.70216400000004,247.202332742,246.70216400000004,None,,,,,,18,001,exponential,gyrb,0.35-0.75,2021_May_21_1009,color_judgement_and_subjective_perception,2020.2.10,59.96174656431533,
1,0.9,training,1000,,,,,,0,54,54,54,,,,,,,,,,,,,247.78669470900002,None,f,0.4478697329999477,247.88669682600005,None,247.30222993300004,247.703364533,248.35322108000003,248.85333284700005,248.35322108000003,None,,,,,,18,001,exponential,gyrb,0.35-0.75,2021_May_21_1009,color_judgement_and_subjective_perception,2020.2.10,59.96174656431533,
1,0.9,training,1000,,,,,,0,55,55,55,,,,,,,,,,,,,249.45365559200002,None,f,0.4448981319999916,249.55367390700002,None,248.95342010500002,249.37023409100004,250.02030237900004,250.52040282300004,250.02030237900004,None,,,,,,18,001,exponential,gyrb,0.35-0.75,2021_May_21_1009,color_judgement_and_subjective_perception,2020.2.10,59.96174656431533,
0,0.9,training,1000,,,,,,0,56,56,56,,,,,,,,,,,,,251.12046168700005,None,d,0.5059556740000062,251.22058787400005,None,250.62050472200002,251.037091513,251.75389317600002,252.253952684,251.75389317600002,None,,,,,,18,001,exponential,gyrb,0.35-0.75,2021_May_21_1009,color_judgement_and_subjective_perception,2020.2.10,59.96174656431533,
1,0.9,training,1000,,,,,,0,57,57,57,,,,,,,,,,,,,252.838193632,None,f,0.2683232870000438,252.938228476,None,252.33986201100004,252.75497771700003,253.23824536400002,253.738365949,253.23824536400002,None,,,,,,18,001,exponential,gyrb,0.35-0.75,2021_May_21_1009,color_judgement_and_subjective_perception,2020.2.10,59.96174656431533,
0,0.9,training,1000,,,,,,0,58,58,58,,,,,,,,,,,,,254.33848178200003,None,d,0.23210231699999895,254.438470279,None,253.83832461600002,254.25516691500002,254.68841074100004,255.18864745900004,254.68841074100004,None,,,,,,18,001,exponential,gyrb,0.35-0.75,2021_May_21_1009,color_judgement_and_subjective_perception,2020.2.10,59.96174656431533,
1,0.9,training,1000,,,,,,0,59,59,59,,,,,,,,,,,,,255.788731106,None,f,0.5418105539999942,255.888732462,None,255.28865016400005,255.70537434,256.455213676,256.955563138,256.455213676,None,,,,,,18,001,exponential,gyrb,0.35-0.75,2021_May_21_1009,color_judgement_and_subjective_perception,2020.2.10,59.96174656431533,
3,0.9,training,1000,,,,,,0,60,60,60,,,,,,,,,,,,,257.539735074,None,k,0.7346380329999533,257.639907005,None,257.055652618,257.45654330400004,258.406408594,258.906745366,258.406408594,None,,,,,,18,001,exponential,gyrb,0.35-0.75,2021_May_21_1009,color_judgement_and_subjective_perception,2020.2.10,59.96174656431533,
2,0.9,training,1000,,,,,,0,61,61,61,,,,,,,,,,,,,259.50692384800004,None,j,0.3438430310000058,259.60672447,None,259.00684159300005,259.423451633,259.973415164,260.47360901800005,259.973415164,None,,,,,,18,001,exponential,gyrb,0.35-0.75,2021_May_21_1009,color_judgement_and_subjective_perception,2020.2.10,59.96174656431533,
0,0.9,training,1000,,,,,,0,62,62,62,,,,,,,,,,,,,261.07364776000003,None,f,0.4487754109999855,261.17375138200003,None,260.573567255,260.99028765,261.64024237800004,262.140604965,261.64024237800004,None,,,,,,18,001,exponential,gyrb,0.35-0.75,2021_May_21_1009,color_judgement_and_subjective_perception,2020.2.10,59.96174656431533,
2,0.9,training,1000,,,,,,0,63,63,63,,,,,,,,,,,,,262.72495964,None,j,0.7578222180000012,262.824710658,None,262.240473882,262.641390753,263.608076464,264.10825727400004,263.608076464,None,,,,,,18,001,exponential,gyrb,0.35-0.75,2021_May_21_1009,color_judgement_and_subjective_perception,2020.2.10,59.96174656431533,
2,0.9,training,1000,,,,,,0,64,64,64,,,,,,,,,,,,,264.70853010800005,None,j,0.4381435920000172,264.808405079,None,264.20826761300003,264.625128404,265.275035611,265.77533809100004,265.275035611,None,,,,,,18,001,exponential,gyrb,0.35-0.75,2021_May_21_1009,color_judgement_and_subjective_perception,2020.2.10,59.96174656431533,
3,0.9,training,1000,,,,,,0,65,65,65,,,,,,,,,,,,,266.375363618,None,k,0.6592465460000199,266.475320225,None,265.875140327,266.291958759,267.158474173,267.64293078000003,267.158474173,None,,,,,,18,001,exponential,gyrb,0.35-0.75,2021_May_21_1009,color_judgement_and_subjective_perception,2020.2.10,59.96174656431533,
2,0.9,training,1000,,,,,,0,66,66,66,,,,,,,,,,,,,268.242782109,None,j,0.5355761950000328,268.342955994,None,267.7432222,268.15977748700004,268.909667324,269.409958199,268.909667324,None,,,,,,18,001,exponential,gyrb,0.35-0.75,2021_May_21_1009,color_judgement_and_subjective_perception,2020.2.10,59.96174656431533,
2,0.9,training,1000,,,,,,0,67,67,67,,,,,,,,,,,,,270.010139438,None,j,0.3285238079999999,270.11003366,None,269.509997,269.92678868400003,270.460040349,270.960185038,270.460040349,None,,,,,,18,001,exponential,gyrb,0.35-0.75,2021_May_21_1009,color_judgement_and_subjective_perception,2020.2.10,59.96174656431533,
3,0.9,training,1000,,,,,,0,68,68,68,,,,,,,,,,,,,271.56023696200003,None,k,0.2822076070000321,271.66025305,None,271.05985717600004,271.476953819,271.96020694000003,272.444537565,271.96020694000003,None,,,,,,18,001,exponential,gyrb,0.35-0.75,2021_May_21_1009,color_judgement_and_subjective_perception,2020.2.10,59.96174656431533,
3,0.9,training,1000,,,,,,0,69,69,69,,,,,,,,,,,,,273.04454211800004,None,k,0.5180482090000282,273.144474858,None,272.54450085400003,272.96120013,273.694516297,274.194844306,273.694516297,None,,,,,,18,001,exponential,gyrb,0.35-0.75,2021_May_21_1009,color_judgement_and_subjective_perception,2020.2.10,59.96174656431533,
1,0.9,training,1000,,,,,,0,70,70,70,,,,,,,,,,,,,274.794967679,None,f,0.4235260919999746,274.89501418400005,None,274.29452791700004,274.711688771,275.344972144,275.84491322,275.344972144,None,,,,,,18,001,exponential,gyrb,0.35-0.75,2021_May_21_1009,color_judgement_and_subjective_perception,2020.2.10,59.96174656431533,
1,0.9,training,1000,,,,,,0,71,71,71,,,,,,,,,,,,,276.44517799700003,None,f,0.42954542699999365,276.544994399,None,275.9449324,276.361723956,276.99511314700004,277.479456657,276.99511314700004,None,,,,,,18,001,exponential,gyrb,0.35-0.75,2021_May_21_1009,color_judgement_and_subjective_perception,2020.2.10,59.96174656431533,
0,0.9,training,1000,,,,,,0,72,72,72,,,,,,,,,,,,,278.079359969,None,d,0.45921586299999717,278.179317486,None,277.57952983300004,277.996299322,278.662759285,279.16286081600003,278.662759285,None,,,,,,18,001,exponential,gyrb,0.35-0.75,2021_May_21_1009,color_judgement_and_subjective_perception,2020.2.10,59.96174656431533,
0,0.9,training,1000,,,,,,0,73,73,73,,,,,,,,,,,,,279.76316072400004,None,d,0.4395664949999514,279.862978008,None,279.26297187100005,279.679906169,280.32994445400004,280.829950723,280.32994445400004,None,,,,,,18,001,exponential,gyrb,0.35-0.75,2021_May_21_1009,color_judgement_and_subjective_perception,2020.2.10,59.96174656431533,
2,0.9,training,1000,,,,,,0,74,74,74,,,,,,,,,,,,,281.43017265400005,None,k,0.5083963140000378,281.530156068,None,280.929963056,281.34669703000003,282.063411554,282.547750984,282.063411554,None,,,,,,18,001,exponential,gyrb,0.35-0.75,2021_May_21_1009,color_judgement_and_subjective_perception,2020.2.10,59.96174656431533,
0,0.9,training,1000,,,,,,0,75,75,75,,,,,,,,,,,,,283.14774953200003,None,d,0.6468766299999515,283.24770038500003,None,282.64772730000004,283.06448027000005,283.91440673100004,284.414725729,283.91440673100004,None,,,,,,18,001,exponential,gyrb,0.35-0.75,2021_May_21_1009,color_judgement_and_subjective_perception,2020.2.10,59.96174656431533,
2,0.9,training,1000,,,,,,0,76,76,76,,,,,,,,,,,,,285.014731524,None,j,0.6357139539999821,285.114851422,None,284.51479057800003,284.93150648700004,285.781416497,286.28165985100003,285.781416497,None,,,,,,18,001,exponential,gyrb,0.35-0.75,2021_May_21_1009,color_judgement_and_subjective_perception,2020.2.10,59.96174656431533,
3,0.9,training,1000,,,,,,0,77,77,77,,,,,,,,,,,,,286.881727512,None,k,0.5048798880000049,286.981659262,None,286.38154890000004,286.79833043300005,287.515915544,288.015988827,287.515915544,None,,,,,,18,001,exponential,gyrb,0.35-0.75,2021_May_21_1009,color_judgement_and_subjective_perception,2020.2.10,59.96174656431533,
3,0.9,training,1000,,,,,,0,78,78,78,,,,,,,,,,,,,288.6160912,None,k,0.5944706159999669,288.715988175,None,288.115982846,288.53279089700004,289.33284492,289.833009381,289.33284492,None,,,,,,18,001,exponential,gyrb,0.35-0.75,2021_May_21_1009,color_judgement_and_subjective_perception,2020.2.10,59.96174656431533,
2,0.9,training,1000,,,,,,0,79,79,79,,,,,,,,,,,,,290.433195834,None,d,0.37737547699998686,290.533086548,None,289.93298652100003,290.34974381700005,290.93301845400003,291.433232138,290.93301845400003,None,,,,,,18,001,exponential,gyrb,0.35-0.75,2021_May_21_1009,color_judgement_and_subjective_perception,2020.2.10,59.96174656431533,
0,0.9,training,1000,,,,,,0,80,80,80,,,,,,,,,,,,,292.033352878,None,d,0.5933781150000073,292.13326194,None,291.53313774900005,291.950093938,292.750785237,293.250963865,292.750785237,None,,,,,,18,001,exponential,gyrb,0.35-0.75,2021_May_21_1009,color_judgement_and_subjective_perception,2020.2.10,59.96174656431533,
0,0.9,training,1000,,,,,,0,81,81,81,,,,,,,,,,,,,293.851114794,None,d,0.40756227200000694,293.950975716,None,293.350732342,293.76767646300004,294.384442298,294.884679511,294.384442298,None,,,,,,18,001,exponential,gyrb,0.35-0.75,2021_May_21_1009,color_judgement_and_subjective_perception,2020.2.10,59.96174656431533,
3,0.9,training,1000,,,,,,0,82,82,82,,,,,,,,,,,,,295.48483994400004,None,k,0.669741828000042,295.58478489000004,None,294.984689311,295.401339869,296.284735937,296.78494372700004,296.284735937,None,,,,,,18,001,exponential,gyrb,0.35-0.75,2021_May_21_1009,color_judgement_and_subjective_perception,2020.2.10,59.96174656431533,
2,0.9,training,1000,,,,,,0,83,83,83,,,,,,,,,,,,,297.369202581,None,j,0.3852664270000332,297.469295755,None,296.884836393,297.301618263,297.885864491,298.38590408700003,297.885864491,None,,,,,,18,001,exponential,gyrb,0.35-0.75,2021_May_21_1009,color_judgement_and_subjective_perception,2020.2.10,59.96174656431533,
3,0.9,training,1000,,,,,,0,84,84,84,,,,,,,,,,,,,298.986011739,None,k,0.39252762099999927,299.086011955,None,298.485772847,298.902657196,299.502775254,300.00289775000005,299.502775254,None,,,,,,18,001,exponential,gyrb,0.35-0.75,2021_May_21_1009,color_judgement_and_subjective_perception,2020.2.10,59.96174656431533,
1,0.9,training,1000,,,,,,0,85,85,85,,,,,,,,,,,,,300.602919475,None,f,0.4796023629999695,300.70295195100005,None,300.102844958,300.51961968800003,301.20291663300003,301.70318633100004,301.20291663300003,None,,,,,,18,001,exponential,gyrb,0.35-0.75,2021_May_21_1009,color_judgement_and_subjective_perception,2020.2.10,59.96174656431533,
1,0.9,training,1000,,,,,,0,86,86,86,,,,,,,,,,,,,302.303122587,None,f,0.3630934599999591,302.387453424,None,301.803052787,302.21984557800005,302.770756194,303.270578412,302.770756194,None,,,,,,18,001,exponential,gyrb,0.35-0.75,2021_May_21_1009,color_judgement_and_subjective_perception,2020.2.10,59.96174656431533,
2,0.9,training,1000,,,,,,0,87,87,87,,,,,,,,,,,,,303.87087028,None,d,0.33166702199997644,303.970909993,None,303.37096878700004,303.787650621,304.320831128,304.82109607,304.320831128,None,,,,,,18,001,exponential,gyrb,0.35-0.75,2021_May_21_1009,color_judgement_and_subjective_perception,2020.2.10,59.96174656431533,
1,0.9,training,1000,,,,,,0,88,88,88,,,,,,,,,,,,,305.421159341,None,f,0.4773502880000251,305.521171008,None,304.921185458,305.33793219,306.021059829,306.52133447100005,306.021059829,None,,,,,,18,001,exponential,gyrb,0.35-0.75,2021_May_21_1009,color_judgement_and_subjective_perception,2020.2.10,59.96174656431533,
0,0.9,training,1000,,,,,,0,89,89,89,,,,,,,,,,,,,307.121495573,None,d,0.49705202299998064,307.221488887,None,306.62114024100003,307.03804535300003,307.738954713,308.238980549,307.738954713,None,,,,,,18,001,exponential,gyrb,0.35-0.75,2021_May_21_1009,color_judgement_and_subjective_perception,2020.2.10,59.96174656431533,
0,0.9,training,1000,,,,,,0,90,90,90,,,,,,,,,,,,,308.839048396,None,d,0.34757262799996624,308.93897134,None,308.33901269200004,308.75571360600003,309.30578022500003,309.80598611700003,309.30578022500003,None,,,,,,18,001,exponential,gyrb,0.35-0.75,2021_May_21_1009,color_judgement_and_subjective_perception,2020.2.10,59.96174656431533,
3,0.9,training,1000,,,,,,0,91,91,91,,,,,,,,,,,,,310.40608351500003,None,k,0.6363958059999959,310.506126551,None,309.90603925700003,310.322762871,311.172731366,311.672920572,311.172731366,None,,,,,,18,001,exponential,gyrb,0.35-0.75,2021_May_21_1009,color_judgement_and_subjective_perception,2020.2.10,59.96174656431533,
3,0.9,training,1000,,,,,,0,92,92,92,,,,,,,,,,,,,312.27286184400003,None,k,0.3768558209999924,312.35766830100005,None,311.77285021700004,312.189702365,312.75726848,313.257351234,312.75726848,None,,,,,,18,001,exponential,gyrb,0.35-0.75,2021_May_21_1009,color_judgement_and_subjective_perception,2020.2.10,59.96174656431533,
2,0.9,training,1000,,,,,,0,93,93,93,,,,,,,,,,,,,313.857382991,None,None,-1,313.957312585,None,313.357285757,313.774078753,314.857580679,315.35766916800003,314.857580679,None,,,,,,18,001,exponential,gyrb,0.35-0.75,2021_May_21_1009,color_judgement_and_subjective_perception,2020.2.10,59.96174656431533,
2,0.9,training,1000,,,,,,0,94,94,94,,,,,,,,,,,,,315.957719304,None,j,0.4047573860000284,316.05781512100003,None,315.457620693,315.874270199,316.49102295100005,316.991122302,316.49102295100005,None,,,,,,18,001,exponential,gyrb,0.35-0.75,2021_May_21_1009,color_judgement_and_subjective_perception,2020.2.10,59.96174656431533,
3,0.9,training,1000,,,,,,0,95,95,95,,,,,,,,,,,,,317.57564576000004,None,d,0.5151217279999969,317.675431816,None,317.09114718700005,317.49213462800003,318.208684974,318.709044901,318.208684974,None,,,,,,18,001,exponential,gyrb,0.35-0.75,2021_May_21_1009,color_judgement_and_subjective_perception,2020.2.10,59.96174656431533,
0,0.35,testing,1000,1,,,,,,,,,0,0,0,0,0,0,0,0,,,,,360.788565689,None,None,-1,360.888645366,None,360.294377752,360.705386132,361.788580254,362.28875003800005,361.788580254,None,0,27,0,,,18,001,exponential,gyrb,0.35-0.75,2021_May_21_1009,color_judgement_and_subjective_perception,2020.2.10,59.96174656431533,
3,0.35,testing,1000,1,,,,,,,,,0,0,0,0,0,1,1,3,,,,,362.873203206,None,d,0.6332672049999815,362.973219914,None,362.37541145,362.78976496900003,363.623021816,364.12340377500004,363.623021816,None,0,0,38,,,18,001,exponential,gyrb,0.35-0.75,2021_May_21_1009,color_judgement_and_subjective_perception,2020.2.10,59.96174656431533,
1,0.35,testing,1000,1,,,,,,,,,0,0,0,0,0,2,2,1,,,,,364.723491965,None,None,-1,364.823524763,None,364.223159055,364.64008035800003,365.723356518,366.22369381600004,365.723356518,None,25,25,0,,,18,001,exponential,gyrb,0.35-0.75,2021_May_21_1009,color_judgement_and_subjective_perception,2020.2.10,59.96174656431533,
2,0.35,testing,1000,1,,,,,,,,,0,0,0,0,0,3,3,2,,,,,366.8237436,None,None,-1,366.923699466,None,366.323571419,366.74013201900004,367.807817148,368.307918362,367.807817148,None,24,8,0,,,18,001,exponential,gyrb,0.35-0.75,2021_May_21_1009,color_judgement_and_subjective_perception,2020.2.10,59.96174656431533,
0,0.35,testing,1000,1,,,,,,,,,0,0,0,0,1,0,4,0,,,,,368.908168894,None,k,0.11072382800000469,369.00795710200003,None,368.40796885500004,368.82474251400004,369.14129777600004,369.64176217100004,369.14129777600004,None,0,32,0,,,18,001,exponential,gyrb,0.35-0.75,2021_May_21_1009,color_judgement_and_subjective_perception,2020.2.10,59.96174656431533,
3,0.35,testing,1000,1,,,,,,,,,0,0,0,0,1,1,5,3,,,,,370.24188341300004,None,k,0.5927270299999918,370.34181140600003,None,369.74163018900003,370.158273478,370.958407233,371.458546952,370.958407233,None,0,0,43,,,18,001,exponential,gyrb,0.35-0.75,2021_May_21_1009,color_judgement_and_subjective_perception,2020.2.10,59.96174656431533,
2,0.35,testing,1000,1,,,,,,,,,0,0,0,0,1,2,6,2,,,,,372.058698274,None,d,0.80773314999999,372.158835106,None,371.558491912,371.975123629,372.99287517600004,373.492954547,372.99287517600004,None,28,9,0,,,18,001,exponential,gyrb,0.35-0.75,2021_May_21_1009,color_judgement_and_subjective_perception,2020.2.10,59.96174656431533,
1,0.35,testing,1000,1,,,,,,,,,0,0,0,0,1,3,7,1,,,,,374.093157764,None,None,-1,374.193009755,None,373.59291597500004,374.00980536500003,375.093028924,375.59330109900003,375.093028924,None,31,31,0,,,18,001,exponential,gyrb,0.35-0.75,2021_May_21_1009,color_judgement_and_subjective_perception,2020.2.10,59.96174656431533,
2,0.35,testing,1000,1,,,,,,,,,0,0,0,0,2,0,8,2,,,,,376.193403908,None,k,0.8091801289999694,376.29340156300003,None,375.693479378,376.110090629,377.126576757,377.611158051,377.126576757,None,31,10,0,,,18,001,exponential,gyrb,0.35-0.75,2021_May_21_1009,color_judgement_and_subjective_perception,2020.2.10,59.96174656431533,
3,0.35,testing,1000,1,,,,,,,,,0,0,0,0,2,1,9,3,,,,,378.211221002,None,None,-1,378.31119428600005,None,377.711150788,378.128019412,379.21127340600003,379.711475607,379.21127340600003,None,0,0,48,,,18,001,exponential,gyrb,0.35-0.75,2021_May_21_1009,color_judgement_and_subjective_perception,2020.2.10,59.96174656431533,
1,0.35,testing,1000,1,,,,,,,,,0,0,0,0,2,2,10,1,,,,,380.311574026,None,f,0.6748598330000277,380.41165138900004,None,379.811600971,380.228414095,381.11144538,381.61187936100004,381.11144538,None,35,35,0,,,18,001,exponential,gyrb,0.35-0.75,2021_May_21_1009,color_judgement_and_subjective_perception,2020.2.10,59.96174656431533,
0,0.35,testing,1000,1,,,,,,,,,0,0,0,0,2,3,11,0,,,,,382.21185335300004,None,d,0.8628422920000389,382.311703435,None,381.711667496,382.128566625,383.19579822400004,383.696225426,383.19579822400004,None,0,40,0,,,18,001,exponential,gyrb,0.35-0.75,2021_May_21_1009,color_judgement_and_subjective_perception,2020.2.10,59.96174656431533,
1,0.35,testing,1000,1,,,,,,,,,0,0,0,0,3,0,12,1,,,,,384.29638654800004,None,d,0.5222709929999496,384.39626754700004,None,383.796107135,384.212865431,384.946366501,385.446468077,384.946366501,None,36,36,0,,,18,001,exponential,gyrb,0.35-0.75,2021_May_21_1009,color_judgement_and_subjective_perception,2020.2.10,59.96174656431533,
2,0.35,testing,1000,1,,,,,,,,,0,0,0,0,3,1,13,2,,,,,386.046550078,None,None,-1,386.146619659,None,385.546516715,385.96327578200004,387.04660002,387.531060674,387.04660002,None,33,11,0,,,18,001,exponential,gyrb,0.35-0.75,2021_May_21_1009,color_judgement_and_subjective_perception,2020.2.10,59.96174656431533,
0,0.35,testing,1000,1,,,,,,,,,0,0,0,0,3,2,14,0,,,,,388.130848866,None,f,0.7356066229999669,388.230935928,None,387.63101276000003,388.04786686700004,388.997644219,389.497936472,388.997644219,None,0,40,0,,,18,001,exponential,gyrb,0.35-0.75,2021_May_21_1009,color_judgement_and_subjective_perception,2020.2.10,59.96174656431533,
3,0.35,testing,1000,1,,,,,,,,,0,0,0,0,3,3,15,3,,,,,390.098054634,None,k,0.688467629999991,390.19804798300004,None,389.597928274,390.014757089,390.914591979,391.414930411,390.914591979,None,0,0,51,,,18,001,exponential,gyrb,0.35-0.75,2021_May_21_1009,color_judgement_and_subjective_perception,2020.2.10,59.96174656431533,
1,0.35,testing,1000,1,,,,,,,,,0,0,0,0,4,0,16,1,,,,,392.01497178,None,None,-1,392.11505893000003,None,391.514776813,391.931681942,392.999248132,393.499250475,392.999248132,None,37,37,0,,,18,001,exponential,gyrb,0.35-0.75,2021_May_21_1009,color_judgement_and_subjective_perception,2020.2.10,59.96174656431533,
0,0.35,testing,1000,1,,,,,,,,,0,0,0,0,4,1,17,0,,,,,394.099431331,None,d,0.7510839490000194,394.199439862,None,393.599270574,394.016089018,394.98268702900003,395.483047596,394.98268702900003,None,0,42,0,,,18,001,exponential,gyrb,0.35-0.75,2021_May_21_1009,color_judgement_and_subjective_perception,2020.2.10,59.96174656431533,
3,0.35,testing,1000,1,,,,,,,,,0,0,0,0,4,2,18,3,,,,,396.08297728900004,None,k,0.4554968399999666,396.18309777400003,None,395.582717112,395.999842021,396.66638456600003,397.16657558500003,396.66638456600003,None,0,0,49,,,18,001,exponential,gyrb,0.35-0.75,2021_May_21_1009,color_judgement_and_subjective_perception,2020.2.10,59.96174656431533,
2,0.35,testing,1000,1,,,,,,,,,0,0,0,0,4,3,19,2,,,,,397.750642706,None,j,0.5875359150000463,397.85099396100003,None,397.266465168,397.66745458400004,398.467336202,398.967564985,398.467336202,None,34,11,0,,,18,001,exponential,gyrb,0.35-0.75,2021_May_21_1009,color_judgement_and_subjective_perception,2020.2.10,59.96174656431533,
2,0.35,testing,1000,1,,,,,,,,,0,0,0,0,5,0,20,2,,,,,399.567766756,None,j,0.5946145390000197,399.66782947800004,None,399.067549615,399.48453078,400.284592685,400.78438974200003,400.284592685,None,34,11,0,,,18,001,exponential,gyrb,0.35-0.75,2021_May_21_1009,color_judgement_and_subjective_perception,2020.2.10,59.96174656431533,
3,0.35,testing,1000,1,,,,,,,,,0,0,0,0,5,1,21,3,,,,,401.38458244400005,None,k,0.6258466859999885,401.484672944,None,400.88445361600003,401.301270373,402.134652253,402.61917285000004,402.134652253,None,0,0,45,,,18,001,exponential,gyrb,0.35-0.75,2021_May_21_1009,color_judgement_and_subjective_perception,2020.2.10,59.96174656431533,
0,0.35,testing,1000,1,,,,,,,,,0,0,0,0,5,2,22,0,,,,,403.219091917,None,d,0.5272280990000127,403.319216201,None,402.71904546800005,403.135637029,403.869060627,404.36932384600004,403.869060627,None,0,36,0,,,18,001,exponential,gyrb,0.35-0.75,2021_May_21_1009,color_judgement_and_subjective_perception,2020.2.10,59.96174656431533,
1,0.35,testing,1000,1,,,,,,,,,0,0,0,0,5,3,23,1,,,,,404.96950797200003,None,j,0.6091226190000043,405.069398788,None,404.469382655,404.886219239,405.702599527,406.20293418200004,405.702599527,None,33,33,0,,,18,001,exponential,gyrb,0.35-0.75,2021_May_21_1009,color_judgement_and_subjective_perception,2020.2.10,59.96174656431533,
2,0.35,testing,1000,1,,,,,,,,,0,0,0,0,6,0,24,2,,,,,406.80303518,None,k,0.6635247450000179,406.90302448700004,None,406.302844258,406.71972486500005,407.58730401900004,408.087362401,407.58730401900004,None,29,10,0,,,18,001,exponential,gyrb,0.35-0.75,2021_May_21_1009,color_judgement_and_subjective_perception,2020.2.10,59.96174656431533,
1,0.35,testing,1000,1,,,,,,,,,0,0,0,0,6,1,25,1,,,,,408.687475827,None,d,0.6509581919999619,408.78757457200004,None,408.18739503800003,408.604040863,409.47080766600004,409.97105801500004,409.47080766600004,None,32,32,0,,,18,001,exponential,gyrb,0.35-0.75,2021_May_21_1009,color_judgement_and_subjective_perception,2020.2.10,59.96174656431533,
0,0.35,testing,1000,1,,,,,,,,,0,0,0,0,6,2,26,0,,,,,410.571041598,None,d,0.7035053840000387,410.671028351,None,410.070982056,410.48776477,411.40437655700003,411.90455930900004,411.40437655700003,None,0,33,0,,,18,001,exponential,gyrb,0.35-0.75,2021_May_21_1009,color_judgement_and_subjective_perception,2020.2.10,59.96174656431533,
3,0.35,testing,1000,1,,,,,,,,,0,0,0,0,6,3,27,3,,,,,412.489029087,None,k,0.8415427589999922,412.589013258,None,412.004589876,412.405542776,413.45554612800004,413.9557545210001,413.45554612800004,None,0,0,40,,,18,001,exponential,gyrb,0.35-0.75,2021_May_21_1009,color_judgement_and_subjective_perception,2020.2.10,59.96174656431533,
0,0.35,testing,1000,1,,,,,,,,,0,0,0,0,7,0,28,0,,,,,414.555866387,None,None,-1,414.65591241199996,None,414.05571911500004,414.472444016,415.55589634899997,416.05605703099997,415.55589634899997,None,0,30,0,,,18,001,exponential,gyrb,0.35-0.75,2021_May_21_1009,color_judgement_and_subjective_perception,2020.2.10,59.96174656431533,
3,0.35,testing,1000,1,,,,,,,,,0,0,0,0,7,1,29,3,,,,,416.65635169700005,None,None,-1,416.75618237200007,None,416.15604027600006,416.5727516150001,417.64036547100005,418.14039480499997,417.64036547100005,None,0,0,37,,,18,001,exponential,gyrb,0.35-0.75,2021_May_21_1009,color_judgement_and_subjective_perception,2020.2.10,59.96174656431533,
2,0.35,testing,1000,1,,,,,,,,,0,0,0,0,7,2,30,2,,,,,418.740547207,None,None,-1,418.84059094800006,None,418.24041085900006,418.65722220800006,419.74077025800005,420.241050723,419.74077025800005,None,26,9,0,,,18,001,exponential,gyrb,0.35-0.75,2021_May_21_1009,color_judgement_and_subjective_perception,2020.2.10,59.96174656431533,
1,0.35,testing,1000,1,,,,,,,,,0,0,0,0,7,3,31,1,,,,,420.840971842,None,d,0.6656274279999934,420.94091984000005,None,420.340911898,420.757470169,421.62433977100005,422.12444775299997,421.62433977100005,None,33,33,0,,,18,001,exponential,gyrb,0.35-0.75,2021_May_21_1009,color_judgement_and_subjective_perception,2020.2.10,59.96174656431533,
2,0.35,testing,1000,1,,,,,,,,,0,0,0,0,8,0,32,2,,,,,422.7086738670001,None,k,0.5659260400000221,422.80863893500003,None,422.22430914299997,422.625507143,423.3919406090001,423.89227503600006,423.3919406090001,None,29,10,0,,,18,001,exponential,gyrb,0.35-0.75,2021_May_21_1009,color_judgement_and_subjective_perception,2020.2.10,59.96174656431533,
1,0.35,testing,1000,1,,,,,,,,,0,0,0,0,8,1,33,1,,,,,424.49238078900004,None,d,0.6301983089999794,424.592373455,None,423.99220790600003,424.409032622,425.242390702,425.74246218800005,425.242390702,None,36,36,0,,,18,001,exponential,gyrb,0.35-0.75,2021_May_21_1009,color_judgement_and_subjective_perception,2020.2.10,59.96174656431533,
3,0.35,testing,1000,1,,,,,,,,,0,0,0,0,8,2,34,3,,,,,426.34269285400006,None,k,0.620011782000006,426.44253382000005,None,425.84248200300004,426.259309836,427.092450049,427.577163323,427.092450049,None,0,0,41,,,18,001,exponential,gyrb,0.35-0.75,2021_May_21_1009,color_judgement_and_subjective_perception,2020.2.10,59.96174656431533,
0,0.35,testing,1000,1,,,,,,,,,0,0,0,0,8,3,35,0,,,,,428.17698979799997,None,d,0.8336259929999414,428.27692128300004,None,427.676977528,428.093619497,429.14364599900006,429.64390574400005,429.14364599900006,None,0,32,0,,,18,001,exponential,gyrb,0.35-0.75,2021_May_21_1009,color_judgement_and_subjective_perception,2020.2.10,59.96174656431533,
1,0.35,testing,1000,1,,,,,,,,,0,0,0,0,9,0,36,1,,,,,430.244003922,None,None,-1,430.34405621700006,None,429.74381008899996,430.160813549,431.24394764100003,431.744251615,431.24394764100003,None,36,36,0,,,18,001,exponential,gyrb,0.35-0.75,2021_May_21_1009,color_judgement_and_subjective_perception,2020.2.10,59.96174656431533,
0,0.35,testing,1000,1,,,,,,,,,0,0,0,0,9,1,37,0,,,,,432.344262132,None,d,0.6019217420000587,432.42862620299996,None,431.84426685400007,432.26088928300004,433.06773757,433.56196916900006,433.06773757,None,0,29,0,,,18,001,exponential,gyrb,0.35-0.75,2021_May_21_1009,color_judgement_and_subjective_perception,2020.2.10,59.96174656431533,
3,0.35,testing,1000,1,,,,,,,,,0,0,0,0,9,2,38,3,,,,,434.112160201,None,d,0.5704167139999754,434.212108976,None,433.66178495,434.02875072500007,434.812198013,435.31105378800004,434.812198013,None,0,0,36,,,18,001,exponential,gyrb,0.35-0.75,2021_May_21_1009,color_judgement_and_subjective_perception,2020.2.10,59.96174656431533,
2,0.35,testing,1000,1,,,,,,,,,0,0,0,0,9,3,39,2,,,,,435.895802531,None,None,-1,435.99581446400003,None,435.41114371200007,435.812344688,436.89550887,437.387063802,436.89550887,None,27,9,0,,,18,001,exponential,gyrb,0.35-0.75,2021_May_21_1009,color_judgement_and_subjective_perception,2020.2.10,59.96174656431533,
2,0.35,testing,1000,1,,,,,,,,,0,0,0,0,10,0,40,2,,,,,437.9800759710001,None,k,0.7502926209999714,438.080206715,None,437.48005484900006,437.896910582,438.863468546,439.363763225,438.863468546,None,29,10,0,,,18,001,exponential,gyrb,0.35-0.75,2021_May_21_1009,color_judgement_and_subjective_perception,2020.2.10,59.96174656431533,
1,0.35,testing,1000,1,,,,,,,,,0,0,0,0,10,1,41,1,,,,,439.96372681300005,None,d,0.7267075559999512,440.063877839,None,439.46369353000006,439.8804631990001,440.81388275800003,441.31408052700004,440.81388275800003,None,36,36,0,,,18,001,exponential,gyrb,0.35-0.75,2021_May_21_1009,color_judgement_and_subjective_perception,2020.2.10,59.96174656431533,
3,0.35,testing,1000,1,,,,,,,,,0,0,0,0,10,2,42,3,,,,,441.91417779500006,None,k,0.7044063749999623,442.0141655940001,None,441.413786989,441.830884463,442.748361248,443.24829043000005,442.748361248,None,0,0,37,,,18,001,exponential,gyrb,0.35-0.75,2021_May_21_1009,color_judgement_and_subjective_perception,2020.2.10,59.96174656431533,
0,0.35,testing,1000,1,,,,,,,,,0,0,0,0,10,3,43,0,,,,,443.848575713,None,d,0.5699339880000025,443.94861732300006,None,443.348537474,443.76521027100006,444.54856607000005,445.048884882,444.54856607000005,None,0,28,0,,,18,001,exponential,gyrb,0.35-0.75,2021_May_21_1009,color_judgement_and_subjective_perception,2020.2.10,59.96174656431533,
0,0.35,testing,1000,1,,,,,,,,,0,0,0,0,11,0,44,0,,,,,445.64873425600007,None,j,0.5857297679999647,445.74879625400007,None,445.14871144700004,445.565516704,446.3653810910001,446.86567126799997,446.3653810910001,None,0,26,0,,,18,001,exponential,gyrb,0.35-0.75,2021_May_21_1009,color_judgement_and_subjective_perception,2020.2.10,59.96174656431533,
3,0.35,testing,1000,1,,,,,,,,,0,0,0,0,11,1,45,3,,,,,447.44993719100006,None,k,0.48865196200006267,447.549884901,None,446.96556738099997,447.38118484299997,448.066415727,448.5666204770001,448.066415727,None,0,0,33,,,18,001,exponential,gyrb,0.35-0.75,2021_May_21_1009,color_judgement_and_subjective_perception,2020.2.10,59.96174656431533,
2,0.35,testing,1000,1,,,,,,,,,0,0,0,0,11,2,46,2,,,,,449.16657769500006,None,k,0.5076473919999671,449.266881748,None,448.666576455,449.083525639,449.80017155700006,450.30055331299997,449.80017155700006,None,28,9,0,,,18,001,exponential,gyrb,0.35-0.75,2021_May_21_1009,color_judgement_and_subjective_perception,2020.2.10,59.96174656431533,
1,0.35,testing,1000,1,,,,,,,,,0,0,0,0,11,3,47,1,,,,,450.900432663,None,d,0.6141057379999211,451.0004398720001,None,450.40026712800005,450.81711459900004,451.633661562,452.13383009,451.633661562,None,33,33,0,,,18,001,exponential,gyrb,0.35-0.75,2021_May_21_1009,color_judgement_and_subjective_perception,2020.2.10,59.96174656431533,
3,0.35,testing,1000,1,,,,,,,,,0,0,0,0,12,0,48,3,,,,,452.71820232400006,None,k,0.6844171850000293,452.81811017800004,None,452.233975469,452.63493877499997,453.53476683800005,454.035077144,453.53476683800005,None,0,0,31,,,18,001,exponential,gyrb,0.35-0.75,2021_May_21_1009,color_judgement_and_subjective_perception,2020.2.10,59.96174656431533,
0,0.35,testing,1000,1,,,,,,,,,0,0,0,0,12,1,49,0,,,,,454.635209956,None,d,0.5513088729999254,454.735220858,None,454.13490473999997,454.55187514100004,455.31841334100005,455.818771667,455.31841334100005,None,0,22,0,,,18,001,exponential,gyrb,0.35-0.75,2021_May_21_1009,color_judgement_and_subjective_perception,2020.2.10,59.96174656431533,
1,0.35,testing,1000,1,,,,,,,,,0,0,0,0,12,2,50,1,,,,,456.41887102800007,None,k,0.18371886899990386,456.51874105200005,None,455.918534587,456.33541031199996,456.73529981300004,457.235649875,456.73529981300004,None,33,33,0,,,18,001,exponential,gyrb,0.35-0.75,2021_May_21_1009,color_judgement_and_subjective_perception,2020.2.10,59.96174656431533,
2,0.35,testing,1000,1,,,,,,,,,0,0,0,0,12,3,51,2,,,,,457.819921331,None,j,0.21460124200007158,457.91994623,None,457.33545713200004,457.736433502,458.15309839700006,458.653185102,458.15309839700006,None,26,9,0,,,18,001,exponential,gyrb,0.35-0.75,2021_May_21_1009,color_judgement_and_subjective_perception,2020.2.10,59.96174656431533,
2,0.35,testing,1000,1,,,,,,,,,0,0,0,0,13,0,52,2,,,,,459.253287963,None,f,0.6851526519999425,459.35342410800007,None,458.75322219900005,459.17002914200003,460.07007047200005,460.57017602900004,460.07007047200005,None,26,9,0,,,18,001,exponential,gyrb,0.35-0.75,2021_May_21_1009,color_judgement_and_subjective_perception,2020.2.10,59.96174656431533,
0,0.35,testing,1000,1,,,,,,,,,0,0,0,0,13,1,53,0,,,,,461.170214532,None,d,0.8562494169999582,461.27027860100003,None,460.67016953500007,461.08694330300006,462.153659184,462.638045461,462.153659184,None,0,17,0,,,18,001,exponential,gyrb,0.35-0.75,2021_May_21_1009,color_judgement_and_subjective_perception,2020.2.10,59.96174656431533,
3,0.35,testing,1000,1,,,,,,,,,0,0,0,0,13,2,54,3,,,,,463.23817712400006,None,None,-1,463.33809856,None,462.73807552700003,463.15470783200004,464.238090924,464.73837773100007,464.238090924,None,0,0,24,,,18,001,exponential,gyrb,0.35-0.75,2021_May_21_1009,color_judgement_and_subjective_perception,2020.2.10,59.96174656431533,
1,0.35,testing,1000,1,,,,,,,,,0,0,0,0,13,3,55,1,,,,,465.3385559160001,None,k,0.6240727140000217,465.43845103200005,None,464.838375072,465.255294786,466.08834090600004,466.588635033,466.08834090600004,None,29,29,0,,,18,001,exponential,gyrb,0.35-0.75,2021_May_21_1009,color_judgement_and_subjective_perception,2020.2.10,59.96174656431533,
2,0.35,testing,1000,1,,,,,,,,,0,0,0,0,14,0,56,2,,,,,467.188771099,None,k,0.46981242899994413,467.28871435,None,466.688676755,467.105389593,467.78936547899997,468.289638778,467.78936547899997,None,25,8,0,,,18,001,exponential,gyrb,0.35-0.75,2021_May_21_1009,color_judgement_and_subjective_perception,2020.2.10,59.96174656431533,
3,0.35,testing,1000,1,,,,,,,,,0,0,0,0,14,1,57,3,,,,,468.889756988,None,f,0.38479965200008337,468.989740037,None,468.38965406100004,468.80638149,469.4063182080001,469.90677561900003,469.4063182080001,None,0,0,24,,,18,001,exponential,gyrb,0.35-0.75,2021_May_21_1009,color_judgement_and_subjective_perception,2020.2.10,59.96174656431533,
1,0.35,testing,1000,1,,,,,,,,,0,0,0,0,14,2,58,1,,,,,470.50674256400004,None,j,0.6078111850000596,470.60671053900006,None,470.006609311,470.423542803,471.239819199,471.74025962,471.239819199,None,33,33,0,,,18,001,exponential,gyrb,0.35-0.75,2021_May_21_1009,color_judgement_and_subjective_perception,2020.2.10,59.96174656431533,
0,0.35,testing,1000,1,,,,,,,,,0,0,0,0,14,3,59,0,,,,,472.34015098599997,None,d,0.4538655750000089,472.424664513,None,471.84019012100003,472.25702223499997,472.907750387,473.40794162000003,472.907750387,None,0,18,0,,,18,001,exponential,gyrb,0.35-0.75,2021_May_21_1009,color_judgement_and_subjective_perception,2020.2.10,59.96174656431533,
2,0.35,testing,1000,1,,,,,,,,,0,0,0,0,15,0,60,2,,,,,474.008081387,None,k,0.5864514410000083,474.10811476200007,None,473.50785024400005,473.92480422400007,474.72468279800006,475.22510661999996,474.72468279800006,None,28,9,0,,,18,001,exponential,gyrb,0.35-0.75,2021_May_21_1009,color_judgement_and_subjective_perception,2020.2.10,59.96174656431533,
3,0.35,testing,1000,1,,,,,,,,,0,0,0,0,15,1,61,3,,,,,475.825054975,None,k,0.8335355309999386,475.924958615,None,475.32479461400004,475.74172189000006,476.775068825,477.275329159,476.775068825,None,0,0,25,,,18,001,exponential,gyrb,0.35-0.75,2021_May_21_1009,color_judgement_and_subjective_perception,2020.2.10,59.96174656431533,
1,0.35,testing,1000,1,,,,,,,,,0,0,0,0,15,2,62,1,,,,,477.85933881299997,None,k,0.5108614550000539,477.95957686,None,477.375138855,477.77616525900004,478.492784449,478.992921514,478.492784449,None,34,34,0,,,18,001,exponential,gyrb,0.35-0.75,2021_May_21_1009,color_judgement_and_subjective_perception,2020.2.10,59.96174656431533,
0,0.35,testing,1000,1,,,,,,,,,0,0,0,0,15,3,63,0,,,,,479.593103472,None,d,0.17728823400000238,479.693181539,None,479.09287960600005,479.509704374,479.892907318,480.393302925,479.892907318,None,0,17,0,,,18,001,exponential,gyrb,0.35-0.75,2021_May_21_1009,color_judgement_and_subjective_perception,2020.2.10,59.96174656431533,
3,0.35,testing,1000,1,,,,,,,,,0,0,0,0,16,0,64,3,,,,,480.9932664,None,k,0.46527054299997417,481.093321312,None,480.4931860020001,480.90990031000007,481.576575978,482.07679205900007,481.576575978,None,0,0,23,,,18,001,exponential,gyrb,0.35-0.75,2021_May_21_1009,color_judgement_and_subjective_perception,2020.2.10,59.96174656431533,
0,0.35,testing,1000,1,,,,,,,,,0,0,0,0,16,1,65,0,,,,,482.66101002700003,None,d,0.117342170000029,482.76118829700005,None,482.176656134,482.577573009,482.91094867400005,483.41105168200005,482.91094867400005,None,0,14,0,,,18,001,exponential,gyrb,0.35-0.75,2021_May_21_1009,color_judgement_and_subjective_perception,2020.2.10,59.96174656431533,
2,0.35,testing,1000,1,,,,,,,,,0,0,0,0,16,2,66,2,,,,,484.011248393,None,k,0.21513713800004552,484.111352299,None,483.51101894699997,483.927729358,484.34437374400005,484.84477145,484.34437374400005,None,27,9,0,,,18,001,exponential,gyrb,0.35-0.75,2021_May_21_1009,color_judgement_and_subjective_perception,2020.2.10,59.96174656431533,
1,0.35,testing,1000,1,,,,,,,,,0,0,0,0,16,3,67,1,,,,,485.44479613100003,None,None,-1,485.54476943000003,None,484.944706476,485.361481426,486.44470321299997,486.94495899500004,486.44470321299997,None,32,32,0,,,18,001,exponential,gyrb,0.35-0.75,2021_May_21_1009,color_judgement_and_subjective_perception,2020.2.10,59.96174656431533,
0,0.35,testing,1000,1,,,,,,,,,0,0,0,0,17,0,68,0,,,,,487.52940750199997,None,k,0.4171743230000402,487.629320061,None,487.044760973,487.446018356,488.079066869,488.57939473000005,488.079066869,None,0,10,0,,,18,001,exponential,gyrb,0.35-0.75,2021_May_21_1009,color_judgement_and_subjective_perception,2020.2.10,59.96174656431533,
3,0.35,testing,1000,1,,,,,,,,,0,0,0,0,17,1,69,3,,,,,489.179500724,None,j,0.8389556119999497,489.279586057,None,488.67929783000005,489.096158164,490.146179517,490.646488595,490.146179517,None,0,0,19,,,18,001,exponential,gyrb,0.35-0.75,2021_May_21_1009,color_judgement_and_subjective_perception,2020.2.10,59.96174656431533,
2,0.35,testing,1000,1,,,,,,,,,0,0,0,0,17,2,70,2,,,,,491.246361142,None,None,-1,491.346376979,None,490.746255392,491.163218264,492.24645924400005,492.730925734,492.24645924400005,None,28,9,0,,,18,001,exponential,gyrb,0.35-0.75,2021_May_21_1009,color_judgement_and_subjective_perception,2020.2.10,59.96174656431533,
1,0.35,testing,1000,1,,,,,,,,,0,0,0,0,17,3,71,1,,,,,493.33081907,None,k,0.6638796949999914,493.43066581700003,None,492.83086474400005,493.247655286,494.11420098700006,494.614574559,494.11420098700006,None,35,35,0,,,18,001,exponential,gyrb,0.35-0.75,2021_May_21_1009,color_judgement_and_subjective_perception,2020.2.10,59.96174656431533,
3,0.35,testing,1000,1,,,,,,,,,0,0,0,0,18,0,72,3,,,,,495.21461338700004,None,d,0.6358108089999632,495.314743074,None,494.71436829,495.13131967,495.981143839,496.48145634400004,495.981143839,None,0,0,21,,,18,001,exponential,gyrb,0.35-0.75,2021_May_21_1009,color_judgement_and_subjective_perception,2020.2.10,59.96174656431533,
0,0.35,testing,1000,1,,,,,,,,,0,0,0,0,18,1,73,0,,,,,497.081527291,None,k,0.7610157670000035,497.18154090800004,None,496.581300343,496.9982018900001,497.96567030700004,498.46584966300003,497.96567030700004,None,0,14,0,,,18,001,exponential,gyrb,0.35-0.75,2021_May_21_1009,color_judgement_and_subjective_perception,2020.2.10,59.96174656431533,
2,0.35,testing,1000,1,,,,,,,,,0,0,0,0,18,2,74,2,,,,,499.06598104799997,None,k,0.7444441260000758,499.165981037,None,498.56570745900007,498.98257230200005,499.93262085500004,500.432999018,499.93262085500004,None,33,11,0,,,18,001,exponential,gyrb,0.35-0.75,2021_May_21_1009,color_judgement_and_subjective_perception,2020.2.10,59.96174656431533,
1,0.35,testing,1000,1,,,,,,,,,0,0,0,0,18,3,75,1,,,,,501.0330420760001,None,d,0.3857091480000463,501.132849785,None,500.53290207000003,500.949476617,501.54953179,502.049808573,501.54953179,None,40,40,0,,,18,001,exponential,gyrb,0.35-0.75,2021_May_21_1009,color_judgement_and_subjective_perception,2020.2.10,59.96174656431533,
2,0.35,testing,1000,1,,,,,,,,,0,0,0,0,19,0,76,2,,,,,502.63393183600004,None,j,0.26434950800000934,502.73420056800006,None,502.14981588200004,502.55060092800005,503.017103146,503.51744735799997,503.017103146,None,36,12,0,,,18,001,exponential,gyrb,0.35-0.75,2021_May_21_1009,color_judgement_and_subjective_perception,2020.2.10,59.96174656431533,
0,0.35,testing,1000,1,,,,,,,,,0,0,0,0,19,1,77,0,,,,,504.11752782800005,None,f,0.5089738130000114,504.217558869,None,503.617346779,504.034125728,504.75079012099997,505.25122727600007,504.75079012099997,None,0,17,0,,,18,001,exponential,gyrb,0.35-0.75,2021_May_21_1009,color_judgement_and_subjective_perception,2020.2.10,59.96174656431533,
3,0.35,testing,1000,1,,,,,,,,,0,0,0,0,19,2,78,3,,,,,505.851224027,None,k,0.3273029309999629,505.95118027899997,None,505.351156213,505.767720482,506.30107326500007,506.80130496400005,506.30107326500007,None,0,0,26,,,18,001,exponential,gyrb,0.35-0.75,2021_May_21_1009,color_judgement_and_subjective_perception,2020.2.10,59.96174656431533,
1,0.35,testing,1000,1,,,,,,,,,0,0,0,0,19,3,79,1,,,,,507.40024944099997,None,d,0.7768410459999586,507.485787667,None,506.901210585,507.3180327310001,508.285576607,508.7857096540001,508.285576607,None,43,43,0,,,18,001,exponential,gyrb,0.35-0.75,2021_May_21_1009,color_judgement_and_subjective_perception,2020.2.10,59.96174656431533,
2,0.35,testing,1000,1,,,,,,,,,0,0,0,0,20,0,80,2,,,,,509.385851642,None,None,-1,509.485801149,None,508.88577892100005,509.30257195300004,510.38596414299997,510.88601567100005,510.38596414299997,None,39,13,0,,,18,001,exponential,gyrb,0.35-0.75,2021_May_21_1009,color_judgement_and_subjective_perception,2020.2.10,59.96174656431533,
0,0.35,testing,1000,1,,,,,,,,,0,0,0,0,20,1,81,0,,,,,511.4862161500001,None,k,0.5804784210000662,511.586070862,None,510.986012101,511.4028676,512.186151173,512.670442411,512.186151173,None,0,20,0,,,18,001,exponential,gyrb,0.35-0.75,2021_May_21_1009,color_judgement_and_subjective_perception,2020.2.10,59.96174656431533,
3,0.35,testing,1000,1,,,,,,,,,0,0,0,0,20,2,82,3,,,,,513.270476541,None,d,0.6118603950000079,513.3706955839999,None,512.7704521239999,513.1871063469999,514.0038804019999,514.50414542,514.0038804019999,None,0,0,27,,,18,001,exponential,gyrb,0.35-0.75,2021_May_21_1009,color_judgement_and_subjective_perception,2020.2.10,59.96174656431533,
1,0.35,testing,1000,1,,,,,,,,,0,0,0,0,20,3,83,1,,,,,515.1042614529999,None,f,0.5383602329999349,515.2042074139999,None,514.603983308,515.020840446,515.7708191419999,516.271035997,515.7708191419999,None,48,48,0,,,18,001,exponential,gyrb,0.35-0.75,2021_May_21_1009,color_judgement_and_subjective_perception,2020.2.10,59.96174656431533,
2,0.35,testing,1000,1,,,,,,,,,0,0,0,0,21,0,84,2,,,,,516.871187027,None,j,0.5234277710000015,516.971155438,None,516.370920587,516.787878964,517.522008324,518.0222061439999,517.522008324,None,42,14,0,,,18,001,exponential,gyrb,0.35-0.75,2021_May_21_1009,color_judgement_and_subjective_perception,2020.2.10,59.96174656431533,
1,0.35,testing,1000,1,,,,,,,,,0,0,0,0,21,1,85,1,,,,,518.6222003869999,None,d,0.7803439639999397,518.72218859,None,518.122121013,518.538829051,519.522186318,520.0224543549999,519.522186318,None,47,47,0,,,18,001,exponential,gyrb,0.35-0.75,2021_May_21_1009,color_judgement_and_subjective_perception,2020.2.10,59.96174656431533,
3,0.35,testing,1000,1,,,,,,,,,0,0,0,0,21,2,86,3,,,,,520.622541473,None,None,-1,520.722503505,None,520.122317117,520.539273912,521.622491527,522.1227150159999,521.622491527,None,0,0,24,,,18,001,exponential,gyrb,0.35-0.75,2021_May_21_1009,color_judgement_and_subjective_perception,2020.2.10,59.96174656431533,
0,0.35,testing,1000,1,,,,,,,,,0,0,0,0,21,3,87,0,,,,,522.707116621,None,j,0.8397793380000849,522.8067784699999,None,522.2227375919999,522.623663053,523.6735191419999,524.173945797,523.6735191419999,None,0,21,0,,,18,001,exponential,gyrb,0.35-0.75,2021_May_21_1009,color_judgement_and_subjective_perception,2020.2.10,59.96174656431533,
3,0.35,testing,1000,1,,,,,,,,,0,0,0,0,22,0,88,3,,,,,524.774086669,None,k,0.6284724210000832,524.8740993949999,None,524.273961906,524.690744936,525.5240037149999,526.024137141,525.5240037149999,None,0,0,27,,,18,001,exponential,gyrb,0.35-0.75,2021_May_21_1009,color_judgement_and_subjective_perception,2020.2.10,59.96174656431533,
1,0.35,testing,1000,1,,,,,,,,,0,0,0,0,22,1,89,1,,,,,526.624312251,None,f,0.6662487050000436,526.724300834,None,526.124125069,526.5407764519999,527.406162216,527.8918904669999,527.406162216,None,48,48,0,,,18,001,exponential,gyrb,0.35-0.75,2021_May_21_1009,color_judgement_and_subjective_perception,2020.2.10,59.96174656431533,
2,0.35,testing,1000,1,,,,,,,,,0,0,0,0,22,2,90,2,,,,,528.491922401,None,j,0.4866250489999402,528.591906151,None,527.991911387,528.408650891,529.108630069,529.608861853,529.108630069,None,39,13,0,,,18,001,exponential,gyrb,0.35-0.75,2021_May_21_1009,color_judgement_and_subjective_perception,2020.2.10,59.96174656431533,
0,0.35,testing,1000,1,,,,,,,,,0,0,0,0,22,3,91,0,,,,,530.209012931,None,d,0.6014259860000948,530.309127193,None,529.708825147,530.125718902,530.942238397,531.442549184,530.942238397,None,0,20,0,,,18,001,exponential,gyrb,0.35-0.75,2021_May_21_1009,color_judgement_and_subjective_perception,2020.2.10,59.96174656431533,
0,0.35,testing,1000,1,,,,,,,,,0,0,0,0,23,0,92,0,,,,,532.04262477,None,None,-1,532.142606837,None,531.5424531609999,531.959239447,533.0266201219999,533.526632418,533.0266201219999,None,0,18,0,,,18,001,exponential,gyrb,0.35-0.75,2021_May_21_1009,color_judgement_and_subjective_perception,2020.2.10,59.96174656431533,
2,0.35,testing,1000,1,,,,,,,,,0,0,0,0,23,1,93,2,,,,,534.126992845,None,j,0.5395297720000372,534.2270349949999,None,533.6267514369999,534.043703175,534.793637314,535.2939520179999,534.793637314,None,35,12,0,,,18,001,exponential,gyrb,0.35-0.75,2021_May_21_1009,color_judgement_and_subjective_perception,2020.2.10,59.96174656431533,
3,0.35,testing,1000,1,,,,,,,,,0,0,0,0,23,2,94,3,,,,,535.893904571,None,d,0.7485526740000523,535.994011508,None,535.3937747169999,535.810656477,536.7606902619999,537.2609114129999,536.7606902619999,None,0,0,20,,,18,001,exponential,gyrb,0.35-0.75,2021_May_21_1009,color_judgement_and_subjective_perception,2020.2.10,59.96174656431533,
1,0.35,testing,1000,1,,,,,,,,,0,0,0,0,23,3,95,1,,,,,537.845030556,None,f,0.7494284330000482,537.945135671,None,537.360832224,537.761842311,538.7117185449999,539.2119878999999,538.7117185449999,None,41,41,0,,,18,001,exponential,gyrb,0.35-0.75,2021_May_21_1009,color_judgement_and_subjective_perception,2020.2.10,59.96174656431533,
2,0.35,testing,1000,1,,,,,,,,,0,0,0,0,,,,,0,0,0,2,661.9334660359999,None,None,-1,662.033779323,None,661.433488905,661.850316226,662.919734836,663.418003784,662.919734836,None,31,10,0,539.3288676379999,None,18,001,exponential,gyrb,0.35-0.75,2021_May_21_1009,color_judgement_and_subjective_perception,2020.2.10,59.96174656431533,
1,0.35,testing,1000,1,,,,,,,,,0,0,0,0,,,,,0,1,1,1,664.0182076929999,None,d,0.5284877159999724,664.118082611,None,663.517712214,663.934784897,664.669541169,665.1684191349999,664.669541169,None,40,40,0,None,None,18,001,exponential,gyrb,0.35-0.75,2021_May_21_1009,color_judgement_and_subjective_perception,2020.2.10,59.96174656431533,
3,0.35,testing,1000,1,,,,,,,,,0,0,0,0,,,,,0,2,2,3,665.7684042899999,None,f,0.6901661119999289,665.8683736969999,None,665.268246335,665.68501081,666.5850292599999,667.085317367,666.5850292599999,None,0,0,21,None,None,18,001,exponential,gyrb,0.35-0.75,2021_May_21_1009,color_judgement_and_subjective_perception,2020.2.10,59.96174656431533,
2,0.35,testing,1000,1,,,,,,,,,0,0,0,0,,,,,0,3,3,2,667.66949067,None,j,0.6050473749999128,667.769519596,None,667.185047833,667.586237472,668.4044306549999,668.902973537,668.4044306549999,None,35,12,0,None,None,18,001,exponential,gyrb,0.35-0.75,2021_May_21_1009,color_judgement_and_subjective_perception,2020.2.10,59.96174656431533,
1,0.35,testing,1000,1,,,,,,,,,0,0,0,0,,,,,1,0,4,1,669.503147145,None,d,0.5073272320000797,669.603207753,None,669.0028423729999,669.419727437,670.137768794,670.63680891,670.137768794,None,40,40,0,None,None,18,001,exponential,gyrb,0.35-0.75,2021_May_21_1009,color_judgement_and_subjective_perception,2020.2.10,59.96174656431533,
0,0.35,testing,1000,1,,,,,,,,,0,0,0,0,,,,,1,1,5,0,671.236753519,None,d,0.509822735000057,671.336708907,None,670.736502119,671.1533895729999,671.871449803,672.370322444,671.871449803,None,0,18,0,None,None,18,001,exponential,gyrb,0.35-0.75,2021_May_21_1009,color_judgement_and_subjective_perception,2020.2.10,59.96174656431533,
3,0.35,testing,1000,1,,,,,,,,,0,0,0,0,,,,,1,2,6,3,672.954564647,None,j,0.6879062220000378,673.0546766179999,None,672.465420933,672.871153944,673.7727835549999,674.2713836319999,673.7727835549999,None,0,0,22,None,None,18,001,exponential,gyrb,0.35-0.75,2021_May_21_1009,color_judgement_and_subjective_perception,2020.2.10,59.96174656431533,
3,0.35,testing,1000,1,,,,,,,,,0,0,0,0,,,,,1,3,7,3,674.8715289429999,None,k,0.4189126890000807,674.971616909,None,674.3713287649999,674.7880805369999,675.422951931,675.921659536,675.422951931,None,0,0,22,None,None,18,001,exponential,gyrb,0.35-0.75,2021_May_21_1009,color_judgement_and_subjective_perception,2020.2.10,59.96174656431533,
2,0.35,testing,1000,1,,,,,,,,,0,0,0,0,,,,,2,0,8,2,676.521706424,None,f,0.728876838999895,676.621709617,None,676.021403297,676.438262188,677.373162829,677.856064682,677.373162829,None,31,10,0,None,None,18,001,exponential,gyrb,0.35-0.75,2021_May_21_1009,color_judgement_and_subjective_perception,2020.2.10,59.96174656431533,
3,0.35,testing,1000,1,,,,,,,,,0,0,0,0,,,,,2,1,9,3,678.45603648,None,d,0.6906041650000816,678.555959298,None,677.955844817,678.3728564239999,679.2727508419999,679.7730974499999,679.2727508419999,None,0,0,19,None,None,18,001,exponential,gyrb,0.35-0.75,2021_May_21_1009,color_judgement_and_subjective_perception,2020.2.10,59.96174656431533,
1,0.35,testing,1000,1,,,,,,,,,0,0,0,0,,,,,2,2,10,1,680.373077849,None,d,0.6694304000000102,680.473121895,None,679.872840235,680.289878199,681.172963454,681.673264446,681.172963454,None,39,39,0,None,None,18,001,exponential,gyrb,0.35-0.75,2021_May_21_1009,color_judgement_and_subjective_perception,2020.2.10,59.96174656431533,
1,0.35,testing,1000,1,,,,,,,,,0,0,0,0,,,,,2,3,11,1,682.273386247,None,d,0.6411039039999196,682.3734355309999,None,681.773106259,682.189918681,683.0408952739999,683.54102928,683.0408952739999,None,41,41,0,None,None,18,001,exponential,gyrb,0.35-0.75,2021_May_21_1009,color_judgement_and_subjective_perception,2020.2.10,59.96174656431533,
0,0.35,testing,1000,1,,,,,,,,,0,0,0,0,,,,,3,0,12,0,684.141064185,None,k,0.7173211809999884,684.241152342,None,683.640893251,684.0579387939999,684.9913511,685.491330489,684.9913511,None,0,16,0,None,None,18,001,exponential,gyrb,0.35-0.75,2021_May_21_1009,color_judgement_and_subjective_perception,2020.2.10,59.96174656431533,
3,0.35,testing,1000,1,,,,,,,,,0,0,0,0,,,,,3,1,13,3,686.091486446,None,k,0.743054516999905,686.191478388,None,685.5912724259999,686.0081418909999,686.959733271,687.457224173,686.959733271,None,0,0,24,None,None,18,001,exponential,gyrb,0.35-0.75,2021_May_21_1009,color_judgement_and_subjective_perception,2020.2.10,59.96174656431533,
3,0.35,testing,1000,1,,,,,,,,,0,0,0,0,,,,,3,2,14,3,688.042627652,None,d,0.679971906999981,688.14258896,None,687.542388888,687.959325389,688.844053692,689.342791189,688.844053692,None,0,0,22,None,None,18,001,exponential,gyrb,0.35-0.75,2021_May_21_1009,color_judgement_and_subjective_perception,2020.2.10,59.96174656431533,
1,0.35,testing,1000,1,,,,,,,,,0,0,0,0,,,,,3,3,15,1,689.942935572,None,f,0.5235040840000238,690.0430315,None,689.442532415,689.859585373,690.5943985089999,691.092999631,690.5943985089999,None,44,44,0,None,None,18,001,exponential,gyrb,0.35-0.75,2021_May_21_1009,color_judgement_and_subjective_perception,2020.2.10,59.96174656431533,
0,0.35,testing,1000,1,,,,,,,,,0,0,0,0,,,,,4,0,16,0,691.692919211,None,k,0.7814544639999212,691.793117425,None,691.1928518459999,691.609753805,692.595629251,693.094091983,692.595629251,None,0,15,0,None,None,18,001,exponential,gyrb,0.35-0.75,2021_May_21_1009,color_judgement_and_subjective_perception,2020.2.10,59.96174656431533,
2,0.35,testing,1000,1,,,,,,,,,0,0,0,0,,,,,4,1,17,2,693.693981527,None,j,0.34828375199992934,693.7942878399999,None,693.19393781,693.6108030219999,694.16241941,694.6609786299999,694.16241941,None,33,11,0,None,None,18,001,exponential,gyrb,0.35-0.75,2021_May_21_1009,color_judgement_and_subjective_perception,2020.2.10,59.96174656431533,
1,0.35,testing,1000,1,,,,,,,,,0,0,0,0,,,,,4,2,18,1,695.261317258,None,f,0.8292628949999425,695.361280223,None,694.761036251,695.177796698,696.211048947,696.7114443749999,696.211048947,None,42,42,0,None,None,18,001,exponential,gyrb,0.35-0.75,2021_May_21_1009,color_judgement_and_subjective_perception,2020.2.10,59.96174656431533,
0,0.35,testing,1000,1,,,,,,,,,0,0,0,0,,,,,4,3,19,0,697.311637651,None,k,0.8030417570000736,697.4115079129999,None,696.811156868,697.2281201449999,698.2472642729999,698.745780593,698.2472642729999,None,0,15,0,None,None,18,001,exponential,gyrb,0.35-0.75,2021_May_21_1009,color_judgement_and_subjective_perception,2020.2.10,59.96174656431533,
3,0.35,testing,1000,1,,,,,,,,,0,0,0,0,,,,,5,0,20,3,699.3460323559999,None,None,-1,699.446020378,None,698.8456260209999,699.262599809,700.346773418,700.84616052,700.346773418,None,0,0,19,None,None,18,001,exponential,gyrb,0.35-0.75,2021_May_21_1009,color_judgement_and_subjective_perception,2020.2.10,59.96174656431533,
2,0.35,testing,1000,1,,,,,,,,,0,0,0,0,,,,,5,1,21,2,701.446092157,None,j,0.5001548359999788,701.546278221,None,700.9459829259999,701.3630232969999,702.081269357,702.5640868629999,702.081269357,None,30,10,0,None,None,18,001,exponential,gyrb,0.35-0.75,2021_May_21_1009,color_judgement_and_subjective_perception,2020.2.10,59.96174656431533,
1,0.35,testing,1000,1,,,,,,,,,0,0,0,0,,,,,5,2,22,1,703.1638618979999,None,d,0.798604227999931,703.26399224,None,702.663773734,703.0805618339999,704.082314596,704.580922055,704.082314596,None,39,39,0,None,None,18,001,exponential,gyrb,0.35-0.75,2021_May_21_1009,color_judgement_and_subjective_perception,2020.2.10,59.96174656431533,
1,0.35,testing,1000,1,,,,,,,,,0,0,0,0,,,,,5,3,23,1,705.1810623709999,None,d,0.7333663790000173,705.281091618,None,704.680817788,705.0977447089999,706.04760129,706.547400051,706.04760129,None,37,37,0,None,None,18,001,exponential,gyrb,0.35-0.75,2021_May_21_1009,color_judgement_and_subjective_perception,2020.2.10,59.96174656431533,
0,0.35,testing,1000,1,,,,,,,,,0,0,0,0,,,,,6,0,24,0,707.1476629939999,None,None,-1,707.2475030649999,None,706.647535602,707.0645835199999,708.132586133,708.632374723,708.132586133,None,0,15,0,None,None,18,001,exponential,gyrb,0.35-0.75,2021_May_21_1009,color_judgement_and_subjective_perception,2020.2.10,59.96174656431533,
2,0.35,testing,1000,1,,,,,,,,,0,0,0,0,,,,,6,1,25,2,709.249072247,None,j,0.7696176859999468,709.348928088,None,708.732135314,709.165704122,710.150768968,710.649319412,710.150768968,None,29,10,0,None,None,18,001,exponential,gyrb,0.35-0.75,2021_May_21_1009,color_judgement_and_subjective_perception,2020.2.10,59.96174656431533,
3,0.35,testing,1000,1,,,,,,,,,0,0,0,0,,,,,6,2,26,3,711.249404759,None,j,0.7451554000000442,711.349368609,None,710.7490911179999,711.1660214259999,712.117509393,712.6005402899999,712.117509393,None,0,0,20,None,None,18,001,exponential,gyrb,0.35-0.75,2021_May_21_1009,color_judgement_and_subjective_perception,2020.2.10,59.96174656431533,
2,0.35,testing,1000,1,,,,,,,,,0,0,0,0,,,,,6,3,27,2,713.2003795339999,None,None,-1,713.3005604829999,None,712.700238625,713.117082088,714.201103343,714.70078873,714.201103343,None,28,9,0,None,None,18,001,exponential,gyrb,0.35-0.75,2021_May_21_1009,color_judgement_and_subjective_perception,2020.2.10,59.96174656431533,
1,0.35,testing,1000,1,,,,,,,,,0,0,0,0,,,,,7,0,28,1,715.300863573,None,f,0.629665904000035,715.400882399,None,714.800643857,715.217554232,716.052595627,716.551045994,716.052595627,None,41,41,0,None,None,18,001,exponential,gyrb,0.35-0.75,2021_May_21_1009,color_judgement_and_subjective_perception,2020.2.10,59.96174656431533,
0,0.35,testing,1000,1,,,,,,,,,0,0,0,0,,,,,7,1,29,0,717.1536880719999,None,f,0.5874130949999881,717.251134044,None,716.6507858,717.0677677369999,717.8703862389999,718.368781303,717.8703862389999,None,0,17,0,None,None,18,001,exponential,gyrb,0.35-0.75,2021_May_21_1009,color_judgement_and_subjective_perception,2020.2.10,59.96174656431533,
1,0.35,testing,1000,1,,,,,,,,,0,0,0,0,,,,,7,2,30,1,718.968799891,None,f,0.6257256499999357,719.068854902,None,718.468505708,718.885465516,719.720342039,720.2191498139999,719.720342039,None,40,40,0,None,None,18,001,exponential,gyrb,0.35-0.75,2021_May_21_1009,color_judgement_and_subjective_perception,2020.2.10,59.96174656431533,
0,0.35,testing,1000,1,,,,,,,,,0,0,0,0,,,,,7,3,31,0,720.819065264,None,k,0.8474364560000822,720.9190964999999,None,720.3188462449999,720.7358743479999,721.787479203,722.2861327759999,721.787479203,None,0,18,0,None,None,18,001,exponential,gyrb,0.35-0.75,2021_May_21_1009,color_judgement_and_subjective_perception,2020.2.10,59.96174656431533,
2,0.35,testing,1000,1,,,,,,,,,0,0,0,0,,,,,8,0,32,2,722.87020518,None,j,0.6203298469999936,722.97021749,None,722.3858350859999,722.786995245,723.6219699689999,724.120373546,723.6219699689999,None,26,9,0,None,None,18,001,exponential,gyrb,0.35-0.75,2021_May_21_1009,color_judgement_and_subjective_perception,2020.2.10,59.96174656431533,
2,0.35,testing,1000,1,,,,,,,,,0,0,0,0,,,,,8,1,33,2,724.7206215489999,None,None,-1,724.820603612,None,724.220272272,724.6372529839999,725.7213184259999,726.2208160309999,725.7213184259999,None,24,8,0,None,None,18,001,exponential,gyrb,0.35-0.75,2021_May_21_1009,color_judgement_and_subjective_perception,2020.2.10,59.96174656431533,
1,0.35,testing,1000,1,,,,,,,,,0,0,0,0,,,,,8,2,34,1,726.820890244,None,f,0.6856476120000252,726.920903499,None,726.32066642,726.7374809639999,727.640431802,728.138477598,727.640431802,None,35,35,0,None,None,18,001,exponential,gyrb,0.35-0.75,2021_May_21_1009,color_judgement_and_subjective_perception,2020.2.10,59.96174656431533,
0,0.35,testing,1000,1,,,,,,,,,0,0,0,0,,,,,8,3,35,0,728.738552646,None,k,0.6719810799999095,728.838598111,None,728.2382503489999,728.6553367319999,729.540501225,730.038760592,729.540501225,None,0,15,0,None,None,18,001,exponential,gyrb,0.35-0.75,2021_May_21_1009,color_judgement_and_subjective_perception,2020.2.10,59.96174656431533,
1,0.35,testing,1000,1,,,,,,,,,0,0,0,0,,,,,9,0,36,1,730.639013181,None,d,0.6196364919999269,730.738942104,None,730.1386701629999,730.555698668,731.388857964,731.889158632,731.388857964,None,32,32,0,None,None,18,001,exponential,gyrb,0.35-0.75,2021_May_21_1009,color_judgement_and_subjective_perception,2020.2.10,59.96174656431533,
2,0.35,testing,1000,1,,,,,,,,,0,0,0,0,,,,,9,1,37,2,732.48059143,None,j,0.3530412380000598,732.573484604,None,731.988820124,732.4058595739999,732.958493766,733.4567867889999,732.958493766,None,21,7,0,None,None,18,001,exponential,gyrb,0.35-0.75,2021_May_21_1009,color_judgement_and_subjective_perception,2020.2.10,59.96174656431533,
3,0.35,testing,1000,1,,,,,,,,,0,0,0,0,,,,,9,2,38,3,734.056830023,None,j,0.5776473249999299,734.15681908,None,733.556750501,733.973567034,734.7585117289999,735.257287549,734.7585117289999,None,0,0,17,None,None,18,001,exponential,gyrb,0.35-0.75,2021_May_21_1009,color_judgement_and_subjective_perception,2020.2.10,59.96174656431533,
0,0.35,testing,1000,1,,,,,,,,,0,0,0,0,,,,,9,3,39,0,735.857238622,None,f,0.6494060840000202,735.957163556,None,735.357061715,735.773828885,736.6240335169999,737.124105668,736.6240335169999,None,0,16,0,None,None,18,001,exponential,gyrb,0.35-0.75,2021_May_21_1009,color_judgement_and_subjective_perception,2020.2.10,59.96174656431533,
3,0.35,testing,1000,1,,,,,,,,,0,0,0,0,,,,,10,0,40,3,737.7085029179999,None,k,0.7982231969999702,737.808328082,None,737.223907726,737.624915142,738.6267614249999,739.1251523909999,738.6267614249999,None,0,0,20,None,None,18,001,exponential,gyrb,0.35-0.75,2021_May_21_1009,color_judgement_and_subjective_perception,2020.2.10,59.96174656431533,
3,0.35,testing,1000,1,,,,,,,,,0,0,0,0,,,,,10,1,41,3,739.725432135,None,j,0.7252133050000111,739.8253709019999,None,739.2249670909999,739.641976133,740.577217196,741.075520483,740.577217196,None,0,0,18,None,None,18,001,exponential,gyrb,0.35-0.75,2021_May_21_1009,color_judgement_and_subjective_perception,2020.2.10,59.96174656431533,
2,0.35,testing,1000,1,,,,,,,,,0,0,0,0,,,,,10,2,42,2,741.675517759,None,k,0.44689218099995287,741.775657423,None,741.175298893,741.5922734359999,742.2421618559999,742.726698975,742.2421618559999,None,21,7,0,None,None,18,001,exponential,gyrb,0.35-0.75,2021_May_21_1009,color_judgement_and_subjective_perception,2020.2.10,59.96174656431533,
2,0.35,testing,1000,1,,,,,,,,,0,0,0,0,,,,,10,3,43,2,743.326741884,None,d,0.7319327139999814,743.4266419549999,None,742.82648519,743.243254247,744.1766397,744.676914605,744.1766397,None,21,7,0,None,None,18,001,exponential,gyrb,0.35-0.75,2021_May_21_1009,color_judgement_and_subjective_perception,2020.2.10,59.96174656431533,
3,0.35,testing,1000,1,,,,,,,,,0,0,0,0,,,,,11,0,44,3,745.27694759,None,f,0.8054183899999998,745.3771695759999,None,744.776858708,745.193723911,746.210333139,746.710490042,746.210333139,None,0,0,22,None,None,18,001,exponential,gyrb,0.35-0.75,2021_May_21_1009,color_judgement_and_subjective_perception,2020.2.10,59.96174656431533,
3,0.35,testing,1000,1,,,,,,,,,0,0,0,0,,,,,11,1,45,3,747.31059835,None,k,0.5399851409999883,747.410554513,None,746.8102844809999,747.227427414,747.9795567379999,748.478198104,747.9795567379999,None,0,0,24,None,None,18,001,exponential,gyrb,0.35-0.75,2021_May_21_1009,color_judgement_and_subjective_perception,2020.2.10,59.96174656431533,
1,0.35,testing,1000,1,,,,,,,,,0,0,0,0,,,,,11,2,46,1,749.078211649,None,f,0.6440985599999749,749.1783687899999,None,748.5780281609999,748.995015805,749.844977772,750.345272897,749.844977772,None,35,35,0,None,None,18,001,exponential,gyrb,0.35-0.75,2021_May_21_1009,color_judgement_and_subjective_perception,2020.2.10,59.96174656431533,
2,0.35,testing,1000,1,,,,,,,,,0,0,0,0,,,,,11,3,47,2,750.945408294,None,k,0.8011721940000598,751.045359828,None,750.4449361999999,750.862017158,751.8805857899999,752.378928217,751.8805857899999,None,22,7,0,None,None,18,001,exponential,gyrb,0.35-0.75,2021_May_21_1009,color_judgement_and_subjective_perception,2020.2.10,59.96174656431533,
2,0.35,testing,1000,1,,,,,,,,,0,0,0,0,,,,,12,0,48,2,752.963183266,None,j,0.49542619599992577,753.0631690409999,None,752.477340506,752.879655536,753.5812984759999,754.0799172129999,753.5812984759999,None,22,7,0,None,None,18,001,exponential,gyrb,0.35-0.75,2021_May_21_1009,color_judgement_and_subjective_perception,2020.2.10,59.96174656431533,
3,0.35,testing,1000,1,,,,,,,,,0,0,0,0,,,,,12,1,49,3,754.680108281,None,f,0.6023976230000017,754.780137589,None,754.179721559,754.5967570739999,755.414988698,755.913518925,755.414988698,None,0,0,19,None,None,18,001,exponential,gyrb,0.35-0.75,2021_May_21_1009,color_judgement_and_subjective_perception,2020.2.10,59.96174656431533,
3,0.35,testing,1000,1,,,,,,,,,0,0,0,0,,,,,12,2,50,3,756.5136299789999,None,j,0.3928889620000291,756.61369314,None,756.0134640729999,756.430317149,757.030318829,757.514703854,757.030318829,None,0,0,19,None,None,18,001,exponential,gyrb,0.35-0.75,2021_May_21_1009,color_judgement_and_subjective_perception,2020.2.10,59.96174656431533,
0,0.35,testing,1000,1,,,,,,,,,0,0,0,0,,,,,12,3,51,0,758.114698507,None,j,0.6158371919999581,758.214711243,None,757.614437254,758.031397497,758.848028872,759.348246335,758.848028872,None,0,17,0,None,None,18,001,exponential,gyrb,0.35-0.75,2021_May_21_1009,color_judgement_and_subjective_perception,2020.2.10,59.96174656431533,
1,0.35,testing,1000,1,,,,,,,,,0,0,0,0,,,,,13,0,52,1,759.948269185,None,f,0.654172133999964,760.048353993,None,759.448020208,759.865083533,760.733216783,761.231867996,760.733216783,None,32,32,0,None,None,18,001,exponential,gyrb,0.35-0.75,2021_May_21_1009,color_judgement_and_subjective_perception,2020.2.10,59.96174656431533,
2,0.35,testing,1000,1,,,,,,,,,0,0,0,0,,,,,13,1,53,2,761.831957455,None,j,0.6586050720000003,761.93198062,None,761.3316392649999,761.748599931,762.6160511439999,763.1162106869999,762.6160511439999,None,20,7,0,None,None,18,001,exponential,gyrb,0.35-0.75,2021_May_21_1009,color_judgement_and_subjective_perception,2020.2.10,59.96174656431533,
3,0.35,testing,1000,1,,,,,,,,,0,0,0,0,,,,,13,2,54,3,763.716330071,None,j,0.55827591700006,763.816288518,None,763.215953995,763.633050046,764.401430086,764.89996116,764.401430086,None,0,0,20,None,None,18,001,exponential,gyrb,0.35-0.75,2021_May_21_1009,color_judgement_and_subjective_perception,2020.2.10,59.96174656431533,
0,0.35,testing,1000,1,,,,,,,,,0,0,0,0,,,,,13,3,55,0,765.50019634,None,d,0.38263215099993886,765.5999338539999,None,764.9997858119999,765.416698542,766.002146176,766.5002379089999,766.002146176,None,0,16,0,None,None,18,001,exponential,gyrb,0.35-0.75,2021_May_21_1009,color_judgement_and_subjective_perception,2020.2.10,59.96174656431533,
2,0.35,testing,1000,1,,,,,,,,,0,0,0,0,,,,,14,0,56,2,767.1002008539999,None,f,0.7582481899999038,767.2003422829999,None,766.599978858,767.0168421579999,767.985882602,768.484418968,767.985882602,None,16,5,0,None,None,18,001,exponential,gyrb,0.35-0.75,2021_May_21_1009,color_judgement_and_subjective_perception,2020.2.10,59.96174656431533,
3,0.35,testing,1000,1,,,,,,,,,0,0,0,0,,,,,14,1,57,3,769.0846294439999,None,k,0.6219001069999877,769.184645942,None,768.5842669819999,769.0014831269999,769.836439009,770.335003282,769.836439009,None,0,0,18,None,None,18,001,exponential,gyrb,0.35-0.75,2021_May_21_1009,color_judgement_and_subjective_perception,2020.2.10,59.96174656431533,
0,0.35,testing,1000,1,,,,,,,,,0,0,0,0,,,,,14,2,58,0,770.934957542,None,k,0.6036140499999192,771.034928577,None,770.43460566,770.85169372,771.6699026409999,772.168577876,771.6699026409999,None,0,14,0,None,None,18,001,exponential,gyrb,0.35-0.75,2021_May_21_1009,color_judgement_and_subjective_perception,2020.2.10,59.96174656431533,
2,0.35,testing,1000,1,,,,,,,,,0,0,0,0,,,,,14,3,59,2,772.7528222,None,f,0.32172438600002806,772.852840678,None,772.268398176,772.6694976839999,773.202455981,773.702644782,773.202455981,None,12,4,0,None,None,18,001,exponential,gyrb,0.35-0.75,2021_May_21_1009,color_judgement_and_subjective_perception,2020.2.10,59.96174656431533,
1,0.35,testing,1000,1,,,,,,,,,0,0,0,0,,,,,15,0,60,1,774.302952839,None,d,0.38757820600005743,774.4030070379999,None,773.802686095,774.2196457069999,774.8196466859999,775.319816372,774.8196466859999,None,25,25,0,None,None,18,001,exponential,gyrb,0.35-0.75,2021_May_21_1009,color_judgement_and_subjective_perception,2020.2.10,59.96174656431533,
3,0.35,testing,1000,1,,,,,,,,,0,0,0,0,,,,,15,1,61,3,775.9197014929999,None,j,0.2987415840000267,776.019836816,None,775.4197016029999,775.836660402,776.336475009,776.836731214,776.336475009,None,0,0,17,None,None,18,001,exponential,gyrb,0.35-0.75,2021_May_21_1009,color_judgement_and_subjective_perception,2020.2.10,59.96174656431533,
1,0.35,testing,1000,1,,,,,,,,,0,0,0,0,,,,,15,2,62,1,777.436764694,None,None,-1,777.520988538,None,776.936524858,777.3535750039999,778.4217040679999,778.921069703,778.4217040679999,None,26,26,0,None,None,18,001,exponential,gyrb,0.35-0.75,2021_May_21_1009,color_judgement_and_subjective_perception,2020.2.10,59.96174656431533,
1,0.35,testing,1000,1,,,,,,,,,0,0,0,0,,,,,15,3,63,1,779.5212023629999,None,j,0.4653075149999495,779.6212991929999,None,779.020979006,779.4378191549999,780.10639237,780.60489681,780.10639237,None,26,26,0,None,None,18,001,exponential,gyrb,0.35-0.75,2021_May_21_1009,color_judgement_and_subjective_perception,2020.2.10,59.96174656431533,
0,0.35,testing,1000,1,,,,,,,,,0,0,0,0,,,,,16,0,64,0,781.2048461669999,None,f,0.5815961680000328,781.304974716,None,780.7047431369999,781.121514121,781.904843582,782.40512065,781.904843582,None,0,19,0,None,None,18,001,exponential,gyrb,0.35-0.75,2021_May_21_1009,color_judgement_and_subjective_perception,2020.2.10,59.96174656431533,
1,0.35,testing,1000,1,,,,,,,,,0,0,0,0,,,,,16,1,65,1,782.989341072,None,f,0.701298692000023,783.089267716,None,782.500066566,782.9059469609999,783.8242911359999,784.32290384,783.8242911359999,None,29,29,0,None,None,18,001,exponential,gyrb,0.35-0.75,2021_May_21_1009,color_judgement_and_subjective_perception,2020.2.10,59.96174656431533,
1,0.35,testing,1000,1,,,,,,,,,0,0,0,0,,,,,16,2,66,1,784.92298603,None,f,0.5114663250000149,785.023084488,None,784.422646775,784.8396425909999,785.5562619489999,786.0563067009999,785.5562619489999,None,29,29,0,None,None,18,001,exponential,gyrb,0.35-0.75,2021_May_21_1009,color_judgement_and_subjective_perception,2020.2.10,59.96174656431533,
1,0.35,testing,1000,1,,,,,,,,,0,0,0,0,,,,,16,3,67,1,786.656490622,None,d,0.45011268700000073,786.756462687,None,786.156135318,786.5731660929999,787.225459183,787.707459268,787.225459183,None,27,27,0,None,None,18,001,exponential,gyrb,0.35-0.75,2021_May_21_1009,color_judgement_and_subjective_perception,2020.2.10,59.96174656431533,
2,0.35,testing,1000,1,,,,,,,,,0,0,0,0,,,,,17,0,68,2,788.307499892,None,j,0.44702668399997947,788.4075219919999,None,787.8072669139999,788.224345603,788.8755481769999,789.3742878329999,788.8755481769999,None,18,6,0,None,None,18,001,exponential,gyrb,0.35-0.75,2021_May_21_1009,color_judgement_and_subjective_perception,2020.2.10,59.96174656431533,
2,0.35,testing,1000,1,,,,,,,,,0,0,0,0,,,,,17,1,69,2,789.9745134589999,None,j,0.4040287509999416,790.074555174,None,789.4742633019999,789.891261546,790.5078229879999,791.007892978,790.5078229879999,None,16,5,0,None,None,18,001,exponential,gyrb,0.35-0.75,2021_May_21_1009,color_judgement_and_subjective_perception,2020.2.10,59.96174656431533,
0,0.35,testing,1000,1,,,,,,,,,0,0,0,0,,,,,17,2,70,0,791.6080185899999,None,j,0.5225777420000668,791.7080114099999,None,791.107711207,791.524741447,792.259564844,792.742425861,792.259564844,None,0,18,0,None,None,18,001,exponential,gyrb,0.35-0.75,2021_May_21_1009,color_judgement_and_subjective_perception,2020.2.10,59.96174656431533,
1,0.35,testing,1000,1,,,,,,,,,0,0,0,0,,,,,17,3,71,1,793.342571597,None,j,0.4840133220000098,793.442473134,None,792.842088516,793.259071953,793.959088085,794.4593426389999,793.959088085,None,22,22,0,None,None,18,001,exponential,gyrb,0.35-0.75,2021_May_21_1009,color_judgement_and_subjective_perception,2020.2.10,59.96174656431533,
0,0.35,testing,1000,1,,,,,,,,,0,0,0,0,,,,,18,0,72,0,795.059515822,None,k,0.43103737500007355,795.1595094219999,None,794.559179376,794.976068943,795.609393931,796.1095495,795.609393931,None,0,19,0,None,None,18,001,exponential,gyrb,0.35-0.75,2021_May_21_1009,color_judgement_and_subjective_perception,2020.2.10,59.96174656431533,
3,0.35,testing,1000,1,,,,,,,,,0,0,0,0,,,,,18,1,73,3,796.7096434389999,None,None,-1,796.809832712,None,796.2093985739999,796.6262386469999,797.694237037,798.1939857479999,797.694237037,None,0,0,20,None,None,18,001,exponential,gyrb,0.35-0.75,2021_May_21_1009,color_judgement_and_subjective_perception,2020.2.10,59.96174656431533,
1,0.35,testing,1000,1,,,,,,,,,0,0,0,0,,,,,18,2,74,1,798.7939812569999,None,j,0.8725836519998893,798.8939999439999,None,798.2938593709999,798.7108729859999,799.794176515,800.294464567,799.794176515,None,26,26,0,None,None,18,001,exponential,gyrb,0.35-0.75,2021_May_21_1009,color_judgement_and_subjective_perception,2020.2.10,59.96174656431533,
1,0.35,testing,1000,1,,,,,,,,,0,0,0,0,,,,,18,3,75,1,800.8944444169999,None,j,0.11612441700003728,800.994448253,None,800.394220447,800.811104166,801.1297705779999,801.627911402,801.1297705779999,None,28,28,0,None,None,18,001,exponential,gyrb,0.35-0.75,2021_May_21_1009,color_judgement_and_subjective_perception,2020.2.10,59.96174656431533,
0,0.35,testing,1000,1,,,,,,,,,0,0,0,0,,,,,19,0,76,0,802.228001607,None,None,-1,802.328004922,None,801.727696159,802.144664239,803.212919845,803.7122680379999,803.212919845,None,0,24,0,None,None,18,001,exponential,gyrb,0.35-0.75,2021_May_21_1009,color_judgement_and_subjective_perception,2020.2.10,59.96174656431533,
