color_idx_ind,target_acc,mode,response_deadline,block_number,trials_training.thisRepN,trials_training.thisTrialN,trials_training.thisN,trials_training.thisIndex,trials_training_deadline.thisRepN,trials_training_deadline.thisTrialN,trials_training_deadline.thisN,trials_training_deadline.thisIndex,blocks.thisRepN,blocks.thisTrialN,blocks.thisN,blocks.thisIndex,trials_staircase.thisRepN,trials_staircase.thisTrialN,trials_staircase.thisN,trials_staircase.thisIndex,trials.thisRepN,trials.thisTrialN,trials.thisN,trials.thisIndex,stimulus_ind.started,stimulus_ind.stopped,key_resp_ind.keys,key_resp_ind.rt,key_resp_ind.started,key_resp_ind.stopped,fixation_cross_1_ind.started,fixation_cross_1_ind.stopped,text.started,text.stopped,dummy_text.started,dummy_text.stopped,stim_ind_color_rgb_r,stim_ind_color_rgb_g,stim_ind_color_rgb_b,text_break_block.started,text_break_block.stopped,participant,session,accuracy_weighting,color_mapping,block_difficulties,date,expName,psychopyVersion,frameRate,
1,0.9,training,1000000000000,,0,0,0,0,,,,,,,,,,,,,,,,,68.52965056799997,None,f,1.060919322000018,68.629535981,None,68.03279744300005,68.44620066900006,69.71542518600006,70.213952952,69.71542518600006,None,,,,,,1,001,exponential,rgby,0.75-0.35,2021_May_17_1100,color_judgement_and_subjective_perception,2020.2.10,60.05314222661089,
2,0.9,training,1000000000000,,0,1,1,1,,,,,,,,,,,,,,,,,70.81407037600002,None,j,0.8484727229999862,70.91398740400007,None,70.31381648600006,70.73072613199997,71.780892483,72.281046189,71.780892483,None,,,,,,1,001,exponential,rgby,0.75-0.35,2021_May_17_1100,color_judgement_and_subjective_perception,2020.2.10,60.05314222661089,
1,0.9,training,1000000000000,,0,2,2,2,,,,,,,,,,,,,,,,,72.88101185000005,None,f,0.8133245520000401,72.98111772200002,None,72.380988473,72.79777141299996,73.81442806899997,74.29867192500001,73.81442806899997,None,,,,,,1,001,exponential,rgby,0.75-0.35,2021_May_17_1100,color_judgement_and_subjective_perception,2020.2.10,60.05314222661089,
0,0.9,training,1000000000000,,0,3,3,3,,,,,,,,,,,,,,,,,74.89879381800006,None,d,0.5636519199999839,74.99881696700004,None,74.39877851799997,74.81561374399996,75.58213197200007,76.08238345999996,75.58213197200007,None,,,,,,1,001,exponential,rgby,0.75-0.35,2021_May_17_1100,color_judgement_and_subjective_perception,2020.2.10,60.05314222661089,
1,0.9,training,1000000000000,,0,4,4,4,,,,,,,,,,,,,,,,,76.68264821700006,None,f,0.6756476840000687,76.78278307599999,None,76.18231387499998,76.59893040600002,77.48238308099997,77.98273837099998,77.48238308099997,None,,,,,,1,001,exponential,rgby,0.75-0.35,2021_May_17_1100,color_judgement_and_subjective_perception,2020.2.10,60.05314222661089,
2,0.9,training,1000000000000,,0,5,5,5,,,,,,,,,,,,,,,,,78.58270759000004,None,j,0.7356079349999618,78.682869246,None,78.08258063100004,78.49943270300002,79.45016160500006,79.95043133900003,79.45016160500006,None,,,,,,1,001,exponential,rgby,0.75-0.35,2021_May_17_1100,color_judgement_and_subjective_perception,2020.2.10,60.05314222661089,
0,0.9,training,1000000000000,,0,6,6,6,,,,,,,,,,,,,,,,,80.55041559100005,None,d,0.7518848959999787,80.650558531,None,80.05050101200004,80.46713623699998,81.433884035,81.934163796,81.433884035,None,,,,,,1,001,exponential,rgby,0.75-0.35,2021_May_17_1100,color_judgement_and_subjective_perception,2020.2.10,60.05314222661089,
3,0.9,training,1000000000000,,0,7,7,7,,,,,,,,,,,,,,,,,82.53414572300005,None,k,0.8484161540000059,82.63405852100004,None,82.03406610800005,82.45086047300003,83.50078034700005,83.98543669900005,83.50078034700005,None,,,,,,1,001,exponential,rgby,0.75-0.35,2021_May_17_1100,color_judgement_and_subjective_perception,2020.2.10,60.05314222661089,
1,0.9,training,1000000000000,,0,8,8,8,,,,,,,,,,,,,,,,,84.58543960600002,None,f,0.6531934050000245,84.68523973800006,None,84.08533767300003,84.50191422099999,85.368512076,85.86884766599997,85.368512076,None,,,,,,1,001,exponential,rgby,0.75-0.35,2021_May_17_1100,color_judgement_and_subjective_perception,2020.2.10,60.05314222661089,
3,0.9,training,1000000000000,,0,9,9,9,,,,,,,,,,,,,,,,,86.46896820999996,None,k,0.8253391050000118,86.56910587300001,None,85.96882268800005,86.38557519899996,87.41906216400002,87.919265139,87.41906216400002,None,,,,,,1,001,exponential,rgby,0.75-0.35,2021_May_17_1100,color_judgement_and_subjective_perception,2020.2.10,60.05314222661089,
2,0.9,training,1000000000000,,0,10,10,10,,,,,,,,,,,,,,,,,88.51927522699998,None,j,0.6711246050000454,88.619319614,None,88.01910471300005,88.43602052799997,89.32014506999997,89.82025052000006,89.32014506999997,None,,,,,,1,001,exponential,rgby,0.75-0.35,2021_May_17_1100,color_judgement_and_subjective_perception,2020.2.10,60.05314222661089,
0,0.9,training,1000000000000,,0,11,11,11,,,,,,,,,,,,,,,,,90.42032043100005,None,d,0.5780211869999903,90.520342604,None,89.92029991300001,90.33696581100003,91.12032521200001,91.62059250900006,91.12032521200001,None,,,,,,1,001,exponential,rgby,0.75-0.35,2021_May_17_1100,color_judgement_and_subjective_perception,2020.2.10,60.05314222661089,
2,0.9,training,1000000000000,,0,12,12,12,,,,,,,,,,,,,,,,,92.22066304300006,None,j,0.7937309060000644,92.32077790000005,None,91.72045427600005,92.13725231399997,93.13731109499997,93.63761223000006,93.13731109499997,None,,,,,,1,001,exponential,rgby,0.75-0.35,2021_May_17_1100,color_judgement_and_subjective_perception,2020.2.10,60.05314222661089,
1,0.9,training,1000000000000,,0,13,13,13,,,,,,,,,,,,,,,,,94.22180184600006,None,f,0.7445082330000332,94.32188227500001,None,93.73759505300006,94.13859108400004,95.08843967200005,95.588776091,95.08843967200005,None,,,,,,1,001,exponential,rgby,0.75-0.35,2021_May_17_1100,color_judgement_and_subjective_perception,2020.2.10,60.05314222661089,
3,0.9,training,1000000000000,,0,14,14,14,,,,,,,,,,,,,,,,,96.18884432900006,None,k,0.7856280900000456,96.288819741,None,95.68867154300005,96.10537594900006,97.10529572999997,97.60571439700004,97.10529572999997,None,,,,,,1,001,exponential,rgby,0.75-0.35,2021_May_17_1100,color_judgement_and_subjective_perception,2020.2.10,60.05314222661089,
2,0.9,training,1000000000000,,0,15,15,15,,,,,,,,,,,,,,,,,98.20581688200002,None,j,0.7447803070000418,98.30573865300005,None,97.70562243200004,98.12240853399999,99.07322245199998,99.57361140800003,99.07322245199998,None,,,,,,1,001,exponential,rgby,0.75-0.35,2021_May_17_1100,color_judgement_and_subjective_perception,2020.2.10,60.05314222661089,
3,0.9,training,1000000000000,,0,16,16,16,,,,,,,,,,,,,,,,,100.17348578999997,None,k,0.7929454210000131,100.27350620699997,None,99.67345385700003,100.09025147199998,101.09032823200005,101.59044067700006,101.09032823200005,None,,,,,,1,001,exponential,rgby,0.75-0.35,2021_May_17_1100,color_judgement_and_subjective_perception,2020.2.10,60.05314222661089,
0,0.9,training,1000000000000,,0,17,17,17,,,,,,,,,,,,,,,,,102.19058365700005,None,d,0.5200060079999957,102.29044442400004,None,101.69029982500001,102.10709721199999,102.84044898299999,103.34060354200005,102.84044898299999,None,,,,,,1,001,exponential,rgby,0.75-0.35,2021_May_17_1100,color_judgement_and_subjective_perception,2020.2.10,60.05314222661089,
3,0.9,training,1000000000000,,0,18,18,18,,,,,,,,,,,,,,,,,103.93206673300006,None,k,0.6894649230000596,104.02501772300002,None,103.44074377000004,103.85743238600003,104.74159608100001,105.24185333100002,104.74159608100001,None,,,,,,1,001,exponential,rgby,0.75-0.35,2021_May_17_1100,color_judgement_and_subjective_perception,2020.2.10,60.05314222661089,
0,0.9,training,1000000000000,,0,19,19,19,,,,,,,,,,,,,,,,,105.84198502100003,None,d,0.7082824199999322,105.94213650000006,None,105.34168263900006,105.75845416699997,106.67539215900001,107.17531119800003,106.67539215900001,None,,,,,,1,001,exponential,rgby,0.75-0.35,2021_May_17_1100,color_judgement_and_subjective_perception,2020.2.10,60.05314222661089,
2,0.9,training,1000000000000,,0,20,20,20,,,,,,,,,,,,,,,,,107.77542314699997,None,j,0.7588956810000127,107.87554281400003,None,107.27535514300007,107.69209487199998,108.65872749900007,109.14310970600002,108.65872749900007,None,,,,,,1,001,exponential,rgby,0.75-0.35,2021_May_17_1100,color_judgement_and_subjective_perception,2020.2.10,60.05314222661089,
1,0.9,training,1000000000000,,0,21,21,21,,,,,,,,,,,,,,,,,109.74317475099997,None,f,0.7029663320000736,109.843465907,None,109.24315923100005,109.65987942000004,110.57663759600007,111.07683885699998,110.57663759600007,None,,,,,,1,001,exponential,rgby,0.75-0.35,2021_May_17_1100,color_judgement_and_subjective_perception,2020.2.10,60.05314222661089,
2,0.9,training,1000000000000,,0,22,22,22,,,,,,,,,,,,,,,,,111.67707966800003,None,j,0.6813485730000366,111.77710183900001,None,111.17690125399997,111.59367896900005,112.47689773299999,112.97711618599999,112.47689773299999,None,,,,,,1,001,exponential,rgby,0.75-0.35,2021_May_17_1100,color_judgement_and_subjective_perception,2020.2.10,60.05314222661089,
3,0.9,training,1000000000000,,0,23,23,23,,,,,,,,,,,,,,,,,113.57729003600002,None,k,0.6772323820000565,113.67725824299998,None,113.07709762000002,113.49391714000001,114.37812654300001,114.87827464300005,114.37812654300001,None,,,,,,1,001,exponential,rgby,0.75-0.35,2021_May_17_1100,color_judgement_and_subjective_perception,2020.2.10,60.05314222661089,
2,0.9,training,1000000000000,,0,24,24,24,,,,,,,,,,,,,,,,,115.47832346300004,None,j,0.6881532139999536,115.57833135999999,None,114.97818245799999,115.39485844000001,116.29512463800006,116.79537023299997,116.29512463800006,None,,,,,,1,001,exponential,rgby,0.75-0.35,2021_May_17_1100,color_judgement_and_subjective_perception,2020.2.10,60.05314222661089,
1,0.9,training,1000000000000,,0,25,25,25,,,,,,,,,,,,,,,,,117.39533008500007,None,f,0.7711771310000586,117.495273623,None,116.89529263500003,117.31186821899996,118.29520955099997,118.79563865399996,118.29520955099997,None,,,,,,1,001,exponential,rgby,0.75-0.35,2021_May_17_1100,color_judgement_and_subjective_perception,2020.2.10,60.05314222661089,
3,0.9,training,1000000000000,,0,26,26,26,,,,,,,,,,,,,,,,,119.37987748199998,None,k,0.6587308520000761,119.47974331900002,None,118.89564344899998,119.29649418300005,120.16301780499998,120.66322538899999,120.16301780499998,None,,,,,,1,001,exponential,rgby,0.75-0.35,2021_May_17_1100,color_judgement_and_subjective_perception,2020.2.10,60.05314222661089,
0,0.9,training,1000000000000,,0,27,27,27,,,,,,,,,,,,,,,,,121.26341104300002,None,d,0.6469459959999995,121.36352994599997,None,120.76324156500004,121.18008522499997,122.03015954399996,122.53027320800004,122.03015954399996,None,,,,,,1,001,exponential,rgby,0.75-0.35,2021_May_17_1100,color_judgement_and_subjective_perception,2020.2.10,60.05314222661089,
1,0.9,training,1000000000000,,0,28,28,28,,,,,,,,,,,,,,,,,123.13025482399996,None,f,0.3960774309999806,123.23038892500006,None,122.63011714100003,123.04712210700006,123.64699283799996,124.13131098500003,123.64699283799996,None,,,,,,1,001,exponential,rgby,0.75-0.35,2021_May_17_1100,color_judgement_and_subjective_perception,2020.2.10,60.05314222661089,
0,0.9,training,1000000000000,,0,29,29,29,,,,,,,,,,,,,,,,,124.73116479099997,None,d,0.5309411549999368,124.83150686199997,None,124.23126998800001,124.64786971199999,125.38121067700001,125.88157833499997,125.38121067700001,None,,,,,,1,001,exponential,rgby,0.75-0.35,2021_May_17_1100,color_judgement_and_subjective_perception,2020.2.10,60.05314222661089,
3,0.9,training,1000000000000,,0,30,30,30,,,,,,,,,,,,,,,,,126.48175832800007,None,j,0.7724289310000358,126.58204636699998,None,125.98181292499999,126.398453614,127.38166618800005,127.88176990700003,127.38166618800005,None,,,,,,1,001,exponential,rgby,0.75-0.35,2021_May_17_1100,color_judgement_and_subjective_perception,2020.2.10,60.05314222661089,
0,0.9,training,1000000000000,,0,31,31,31,,,,,,,,,,,,,,,,,128.48194508300003,None,d,0.7404256140000598,128.58204718800005,None,127.98174110100001,128.398443693,129.34954152600005,129.84968339500006,129.34954152600005,None,,,,,,1,001,exponential,rgby,0.75-0.35,2021_May_17_1100,color_judgement_and_subjective_perception,2020.2.10,60.05314222661089,
3,0.9,training,1000,,,,,,0,0,0,0,,,,,,,,,,,,,143.10337620300004,None,k,0.5830749420000529,143.20340690800003,None,142.60575995099998,143.02010289099996,143.803375276,144.287760532,143.803375276,None,,,,,,1,001,exponential,rgby,0.75-0.35,2021_May_17_1100,color_judgement_and_subjective_perception,2020.2.10,60.05314222661089,
1,0.9,training,1000,,,,,,0,1,1,1,,,,,,,,,,,,,144.88783836000005,None,f,0.8547212570000511,144.98777949099997,None,144.387626523,144.80447900700005,145.87126012,146.37142929599997,145.87126012,None,,,,,,1,001,exponential,rgby,0.75-0.35,2021_May_17_1100,color_judgement_and_subjective_perception,2020.2.10,60.05314222661089,
0,0.9,training,1000,,,,,,0,2,2,2,,,,,,,,,,,,,146.971504761,None,d,0.3709536039999648,147.07150052600002,None,146.471400012,146.888238087,147.47133480900004,147.97149526700002,147.47133480900004,None,,,,,,1,001,exponential,rgby,0.75-0.35,2021_May_17_1100,color_judgement_and_subjective_perception,2020.2.10,60.05314222661089,
2,0.9,training,1000,,,,,,0,3,3,3,,,,,,,,,,,,,148.57173967699998,None,j,0.6587662109999428,148.67167255100003,None,148.07139535500005,148.488485772,149.35588188500003,149.855979412,149.35588188500003,None,,,,,,1,001,exponential,rgby,0.75-0.35,2021_May_17_1100,color_judgement_and_subjective_perception,2020.2.10,60.05314222661089,
0,0.9,training,1000,,,,,,0,4,4,4,,,,,,,,,,,,,150.456196977,None,d,0.4622962199999847,150.55613024000002,None,149.95596683500003,150.372758676,151.03956246899997,151.53976302500007,151.03956246899997,None,,,,,,1,001,exponential,rgby,0.75-0.35,2021_May_17_1100,color_judgement_and_subjective_perception,2020.2.10,60.05314222661089,
3,0.9,training,1000,,,,,,0,5,5,5,,,,,,,,,,,,,152.13965781299999,None,k,0.5386759970000412,152.23979686899997,None,151.63972973800003,152.05660452200004,152.80637996999997,153.30659023199996,152.80637996999997,None,,,,,,1,001,exponential,rgby,0.75-0.35,2021_May_17_1100,color_judgement_and_subjective_perception,2020.2.10,60.05314222661089,
1,0.9,training,1000,,,,,,0,6,6,6,,,,,,,,,,,,,153.90676576099997,None,f,0.5476063950000025,153.99087344500003,None,153.40654069900006,153.82332215600002,154.557527112,155.05755976900002,154.557527112,None,,,,,,1,001,exponential,rgby,0.75-0.35,2021_May_17_1100,color_judgement_and_subjective_perception,2020.2.10,60.05314222661089,
0,0.9,training,1000,,,,,,0,7,7,7,,,,,,,,,,,,,155.65770759400004,None,d,0.5004479479999873,155.75793398400003,None,155.15769597899998,155.574366284,156.29109931100004,156.79139469300003,156.29109931100004,None,,,,,,1,001,exponential,rgby,0.75-0.35,2021_May_17_1100,color_judgement_and_subjective_perception,2020.2.10,60.05314222661089,
3,0.9,training,1000,,,,,,0,8,8,8,,,,,,,,,,,,,157.39138337600002,None,k,0.6310827649999737,157.49136381699998,None,156.89130671500004,157.30795888199998,158.14142239199998,158.641698571,158.14142239199998,None,,,,,,1,001,exponential,rgby,0.75-0.35,2021_May_17_1100,color_judgement_and_subjective_perception,2020.2.10,60.05314222661089,
0,0.9,training,1000,,,,,,0,9,9,9,,,,,,,,,,,,,159.22598824700003,None,d,0.7325375929999609,159.32590097900004,None,158.74153119699997,159.14254627800005,160.075728872,160.57600394400004,160.075728872,None,,,,,,1,001,exponential,rgby,0.75-0.35,2021_May_17_1100,color_judgement_and_subjective_perception,2020.2.10,60.05314222661089,
2,0.9,training,1000,,,,,,0,10,10,10,,,,,,,,,,,,,161.17623580600002,None,j,0.5182808450000493,161.276176147,None,160.675885462,161.09275252999998,161.82608014200002,162.32623267999998,161.82608014200002,None,,,,,,1,001,exponential,rgby,0.75-0.35,2021_May_17_1100,color_judgement_and_subjective_perception,2020.2.10,60.05314222661089,
3,0.9,training,1000,,,,,,0,11,11,11,,,,,,,,,,,,,162.926369474,None,k,0.7201078719999714,163.02635127100007,None,162.42615964800007,162.843055726,163.77635775400006,164.26074829599997,163.77635775400006,None,,,,,,1,001,exponential,rgby,0.75-0.35,2021_May_17_1100,color_judgement_and_subjective_perception,2020.2.10,60.05314222661089,
1,0.9,training,1000,,,,,,0,12,12,12,,,,,,,,,,,,,164.86077576399998,None,f,0.6096053219999931,164.96084622500007,None,164.36083906400006,164.77744508700005,165.59414723999998,166.09436981299996,165.59414723999998,None,,,,,,1,001,exponential,rgby,0.75-0.35,2021_May_17_1100,color_judgement_and_subjective_perception,2020.2.10,60.05314222661089,
0,0.9,training,1000,,,,,,0,13,13,13,,,,,,,,,,,,,166.69462777800004,None,d,0.5679293450000387,166.794542298,None,166.19433155600007,166.61136057400006,167.39439703200003,167.89464398400003,167.39439703200003,None,,,,,,1,001,exponential,rgby,0.75-0.35,2021_May_17_1100,color_judgement_and_subjective_perception,2020.2.10,60.05314222661089,
2,0.9,training,1000,,,,,,0,14,14,14,,,,,,,,,,,,,168.49472034200005,None,None,-1,168.59468286499998,None,167.99452762800001,168.41140493800003,169.49543918000006,169.99567947100002,169.49543918000006,None,,,,,,1,001,exponential,rgby,0.75-0.35,2021_May_17_1100,color_judgement_and_subjective_perception,2020.2.10,60.05314222661089,
3,0.9,training,1000,,,,,,0,15,15,15,,,,,,,,,,,,,170.59581050099996,None,k,0.8266739499999858,170.69579657300005,None,170.09574797300002,170.51255063200006,171.54592526199997,172.04612629300004,171.54592526199997,None,,,,,,1,001,exponential,rgby,0.75-0.35,2021_May_17_1100,color_judgement_and_subjective_perception,2020.2.10,60.05314222661089,
2,0.9,training,1000,,,,,,0,16,16,16,,,,,,,,,,,,,172.64624764899997,None,j,0.7441535399999566,172.746210571,None,172.14618723,172.56273140100006,173.51300490799997,173.99733703100003,173.51300490799997,None,,,,,,1,001,exponential,rgby,0.75-0.35,2021_May_17_1100,color_judgement_and_subjective_perception,2020.2.10,60.05314222661089,
1,0.9,training,1000,,,,,,0,17,17,17,,,,,,,,,,,,,174.59726715099998,None,f,0.6731633709999869,174.69727465000005,None,174.09733314000005,174.513973008,175.397384772,175.89754077400005,175.397384772,None,,,,,,1,001,exponential,rgby,0.75-0.35,2021_May_17_1100,color_judgement_and_subjective_perception,2020.2.10,60.05314222661089,
0,0.9,training,1000,,,,,,0,18,18,18,,,,,,,,,,,,,176.49785570300003,None,d,0.36491049300002487,176.59756995500004,None,175.99752797400004,176.41426758800003,176.98101263700005,177.48104961499996,176.98101263700005,None,,,,,,1,001,exponential,rgby,0.75-0.35,2021_May_17_1100,color_judgement_and_subjective_perception,2020.2.10,60.05314222661089,
1,0.9,training,1000,,,,,,0,19,19,19,,,,,,,,,,,,,178.08123131700006,None,f,0.565300205000085,178.181185218,None,177.581064598,177.99781487400003,178.76450507599998,179.24897723100003,178.76450507599998,None,,,,,,1,001,exponential,rgby,0.75-0.35,2021_May_17_1100,color_judgement_and_subjective_perception,2020.2.10,60.05314222661089,
2,0.9,training,1000,,,,,,0,20,20,20,,,,,,,,,,,,,179.84893159399996,None,j,0.38949026399996,179.94896310700005,None,179.34879634699996,179.76566907300003,180.36550820000002,180.86573856200005,180.36550820000002,None,,,,,,1,001,exponential,rgby,0.75-0.35,2021_May_17_1100,color_judgement_and_subjective_perception,2020.2.10,60.05314222661089,
0,0.9,training,1000,,,,,,0,21,21,21,,,,,,,,,,,,,181.46607173799998,None,d,0.5884752270000035,181.56599364700003,None,180.965799081,181.38268337,182.18243873200004,182.68272936300002,182.18243873200004,None,,,,,,1,001,exponential,rgby,0.75-0.35,2021_May_17_1100,color_judgement_and_subjective_perception,2020.2.10,60.05314222661089,
3,0.9,training,1000,,,,,,0,22,22,22,,,,,,,,,,,,,183.28273431599996,None,None,-1,183.38279841300005,None,182.78266815400002,183.199392719,184.28373643700002,184.78387261199998,184.28373643700002,None,,,,,,1,001,exponential,rgby,0.75-0.35,2021_May_17_1100,color_judgement_and_subjective_perception,2020.2.10,60.05314222661089,
0,0.9,training,1000,,,,,,0,23,23,23,,,,,,,,,,,,,185.38391063300003,None,d,0.5825582219999887,185.48393685999997,None,184.88381385399998,185.300625825,186.08377904400004,186.58400793600003,186.08377904400004,None,,,,,,1,001,exponential,rgby,0.75-0.35,2021_May_17_1100,color_judgement_and_subjective_perception,2020.2.10,60.05314222661089,
1,0.9,training,1000,,,,,,0,24,24,24,,,,,,,,,,,,,187.150978312,None,None,-1,187.22698166700002,None,186.68422808700006,187.084420862,187.76680124200004,188.11765552300005,187.76680124200004,None,,,,,,1,001,exponential,rgby,0.75-0.35,2021_May_17_1100,color_judgement_and_subjective_perception,2020.2.10,60.05314222661089,
3,0.9,training,1000,,,,,,0,25,25,25,,,,,,,,,,,,,188.71782347700002,None,j,0.6329930780000268,188.81750431900002,None,188.21736855799998,188.63452046700002,189.46863303500004,189.96871397000007,189.46863303500004,None,,,,,,1,001,exponential,rgby,0.75-0.35,2021_May_17_1100,color_judgement_and_subjective_perception,2020.2.10,60.05314222661089,
0,0.9,training,1000,,,,,,0,26,26,26,,,,,,,,,,,,,190.568907814,None,d,0.6376128250000193,190.66888550199997,None,190.06868734700004,190.48550738400002,191.33555144600007,191.83581880300005,191.33555144600007,None,,,,,,1,001,exponential,rgby,0.75-0.35,2021_May_17_1100,color_judgement_and_subjective_perception,2020.2.10,60.05314222661089,
1,0.9,training,1000,,,,,,0,27,27,27,,,,,,,,,,,,,192.43577538199997,None,f,0.6425902040000437,192.53585720700005,None,191.935681532,192.35263642899997,193.20243766600004,193.70275630800006,193.20243766600004,None,,,,,,1,001,exponential,rgby,0.75-0.35,2021_May_17_1100,color_judgement_and_subjective_perception,2020.2.10,60.05314222661089,
3,0.9,training,1000,,,,,,0,28,28,28,,,,,,,,,,,,,194.28693301300007,None,k,0.5915785899999264,194.38689163900005,None,193.80267915700006,194.20363495000004,195.00358389200005,195.50375577,195.00358389200005,None,,,,,,1,001,exponential,rgby,0.75-0.35,2021_May_17_1100,color_judgement_and_subjective_perception,2020.2.10,60.05314222661089,
1,0.9,training,1000,,,,,,0,29,29,29,,,,,,,,,,,,,196.10394449700004,None,f,0.6385588250000183,196.20390724499998,None,195.60372281499997,196.02063606000002,196.87042922600006,197.37071729700006,196.87042922600006,None,,,,,,1,001,exponential,rgby,0.75-0.35,2021_May_17_1100,color_judgement_and_subjective_perception,2020.2.10,60.05314222661089,
2,0.9,training,1000,,,,,,0,30,30,30,,,,,,,,,,,,,197.97070513000006,None,j,0.31553380500008643,198.07092111600002,None,197.47064709799997,197.88745339900004,198.404102944,198.90430484500007,198.404102944,None,,,,,,1,001,exponential,rgby,0.75-0.35,2021_May_17_1100,color_judgement_and_subjective_perception,2020.2.10,60.05314222661089,
3,0.9,training,1000,,,,,,0,31,31,31,,,,,,,,,,,,,199.488613139,None,k,0.6218121980000433,199.58865525600004,None,198.99006312300003,199.40522301500005,200.23846921400002,200.73864331900006,200.23846921400002,None,,,,,,1,001,exponential,rgby,0.75-0.35,2021_May_17_1100,color_judgement_and_subjective_perception,2020.2.10,60.05314222661089,
1,0.9,training,1000,,,,,,0,32,32,32,,,,,,,,,,,,,201.33892157000002,None,f,0.6034479659999761,201.43900612100003,None,200.83866618000002,201.255555383,202.07224932400004,202.572336479,202.07224932400004,None,,,,,,1,001,exponential,rgby,0.75-0.35,2021_May_17_1100,color_judgement_and_subjective_perception,2020.2.10,60.05314222661089,
2,0.9,training,1000,,,,,,0,33,33,33,,,,,,,,,,,,,203.17244059799998,None,j,0.5780069850000018,203.272377528,None,202.67223252500003,203.08911171299997,203.87249506700005,204.356870716,203.87249506700005,None,,,,,,1,001,exponential,rgby,0.75-0.35,2021_May_17_1100,color_judgement_and_subjective_perception,2020.2.10,60.05314222661089,
3,0.9,training,1000,,,,,,0,34,34,34,,,,,,,,,,,,,204.95688060400005,None,k,0.569570016000057,205.05688454799997,None,204.45678625900007,204.873527858,205.656802566,206.15728351200005,205.656802566,None,,,,,,1,001,exponential,rgby,0.75-0.35,2021_May_17_1100,color_judgement_and_subjective_perception,2020.2.10,60.05314222661089,
2,0.9,training,1000,,,,,,0,35,35,35,,,,,,,,,,,,,206.75733194099996,None,j,0.5450489349999543,206.85743837400003,None,206.25714718799998,206.67393000699997,207.42384498600006,207.92396741699997,207.42384498600006,None,,,,,,1,001,exponential,rgby,0.75-0.35,2021_May_17_1100,color_judgement_and_subjective_perception,2020.2.10,60.05314222661089,
0,0.9,training,1000,,,,,,0,36,36,36,,,,,,,,,,,,,208.524132785,None,d,0.46618996200004403,208.624273024,None,208.024151436,208.44079357700002,209.10826608399998,209.60846039399996,209.10826608399998,None,,,,,,1,001,exponential,rgby,0.75-0.35,2021_May_17_1100,color_judgement_and_subjective_perception,2020.2.10,60.05314222661089,
3,0.9,training,1000,,,,,,0,37,37,37,,,,,,,,,,,,,210.20857157900002,None,k,0.501910821000024,210.30855760999998,None,209.708370532,210.12516677200006,210.84183370699998,211.34190307699998,210.84183370699998,None,,,,,,1,001,exponential,rgby,0.75-0.35,2021_May_17_1100,color_judgement_and_subjective_perception,2020.2.10,60.05314222661089,
1,0.9,training,1000,,,,,,0,38,38,38,,,,,,,,,,,,,211.942212992,None,f,0.5362478629999714,212.042205222,None,211.44218398300006,211.858849319,212.60874661000003,213.10903071400003,212.60874661000003,None,,,,,,1,001,exponential,rgby,0.75-0.35,2021_May_17_1100,color_judgement_and_subjective_perception,2020.2.10,60.05314222661089,
0,0.9,training,1000,,,,,,0,39,39,39,,,,,,,,,,,,,213.709128492,None,d,0.32959774999994806,213.80888109500006,None,213.208974249,213.62579351,214.15988457900005,214.659866256,214.15988457900005,None,,,,,,1,001,exponential,rgby,0.75-0.35,2021_May_17_1100,color_judgement_and_subjective_perception,2020.2.10,60.05314222661089,
2,0.9,training,1000,,,,,,0,40,40,40,,,,,,,,,,,,,215.259978541,None,j,0.32233512799996333,215.36011866800004,None,214.75988681700005,215.17674553799998,215.71009606300004,216.21020517199997,215.71009606300004,None,,,,,,1,001,exponential,rgby,0.75-0.35,2021_May_17_1100,color_judgement_and_subjective_perception,2020.2.10,60.05314222661089,
0,0.9,training,1000,,,,,,0,41,41,41,,,,,,,,,,,,,216.81036459100005,None,d,0.5879887500000223,216.91049084500003,None,216.31023530100003,216.72714820199997,217.52696614499996,218.02720978700006,217.52696614499996,None,,,,,,1,001,exponential,rgby,0.75-0.35,2021_May_17_1100,color_judgement_and_subjective_perception,2020.2.10,60.05314222661089,
2,0.9,training,1000,,,,,,0,42,42,42,,,,,,,,,,,,,218.62737652600003,None,j,0.747137146,218.72734159200002,None,218.12715166400005,218.544032506,219.49493412100003,219.994965891,219.49493412100003,None,,,,,,1,001,exponential,rgby,0.75-0.35,2021_May_17_1100,color_judgement_and_subjective_perception,2020.2.10,60.05314222661089,
1,0.9,training,1000,,,,,,0,43,43,43,,,,,,,,,,,,,220.59511920500006,None,f,0.5073268390000294,220.69511871300006,None,220.09489092,220.511712784,221.22840346199996,221.728663719,221.22840346199996,None,,,,,,1,001,exponential,rgby,0.75-0.35,2021_May_17_1100,color_judgement_and_subjective_perception,2020.2.10,60.05314222661089,
2,0.9,training,1000,,,,,,0,44,44,44,,,,,,,,,,,,,222.32867218900003,None,j,0.637811700000043,222.42866964200005,None,221.828772986,222.24536831700004,223.09525918200006,223.59550909799998,223.09525918200006,None,,,,,,1,001,exponential,rgby,0.75-0.35,2021_May_17_1100,color_judgement_and_subjective_perception,2020.2.10,60.05314222661089,
3,0.9,training,1000,,,,,,0,45,45,45,,,,,,,,,,,,,224.1798159,None,k,0.5786436469999217,224.27985878699997,None,223.69554209500006,224.096534926,224.87970342899996,225.379906765,224.87970342899996,None,,,,,,1,001,exponential,rgby,0.75-0.35,2021_May_17_1100,color_judgement_and_subjective_perception,2020.2.10,60.05314222661089,
1,0.9,training,1000,,,,,,0,46,46,46,,,,,,,,,,,,,225.98022952100007,None,f,0.578359272000057,226.08010318599997,None,225.47989314300003,225.896690746,226.680161053,227.18035998799996,226.680161053,None,,,,,,1,001,exponential,rgby,0.75-0.35,2021_May_17_1100,color_judgement_and_subjective_perception,2020.2.10,60.05314222661089,
2,0.9,training,1000,,,,,,0,47,47,47,,,,,,,,,,,,,227.78038259799996,None,None,-1,227.88048168900002,None,227.28021228600005,227.696997915,228.79703294700005,229.28152543099998,228.79703294700005,None,,,,,,1,001,exponential,rgby,0.75-0.35,2021_May_17_1100,color_judgement_and_subjective_perception,2020.2.10,60.05314222661089,
2,0.9,training,1000,,,,,,0,48,48,48,,,,,,,,,,,,,229.88144875,None,j,0.5569528479999235,229.98150410900007,None,229.38141162099998,229.79798822400005,230.56482552299997,231.06499355899996,230.56482552299997,None,,,,,,1,001,exponential,rgby,0.75-0.35,2021_May_17_1100,color_judgement_and_subjective_perception,2020.2.10,60.05314222661089,
0,0.9,training,1000,,,,,,0,49,49,49,,,,,,,,,,,,,231.66531039100005,None,d,0.49322594700004174,231.765268483,None,231.16508704399996,231.581892638,232.28174664200003,232.78179838799997,232.28174664200003,None,,,,,,1,001,exponential,rgby,0.75-0.35,2021_May_17_1100,color_judgement_and_subjective_perception,2020.2.10,60.05314222661089,
0,0.9,training,1000,,,,,,0,50,50,50,,,,,,,,,,,,,233.382053304,None,d,0.6003735839999536,233.48210673100004,None,232.88200604300005,233.29861717000006,234.09969160499998,234.59979775199997,234.09969160499998,None,,,,,,1,001,exponential,rgby,0.75-0.35,2021_May_17_1100,color_judgement_and_subjective_perception,2020.2.10,60.05314222661089,
1,0.9,training,1000,,,,,,0,51,51,51,,,,,,,,,,,,,235.19982688900006,None,f,0.7266777150000507,235.29980230299998,None,234.69975971200006,235.11638232999996,236.04985691600007,236.550121009,236.04985691600007,None,,,,,,1,001,exponential,rgby,0.75-0.35,2021_May_17_1100,color_judgement_and_subjective_perception,2020.2.10,60.05314222661089,
2,0.9,training,1000,,,,,,0,52,52,52,,,,,,,,,,,,,237.13366443300004,None,None,-1,237.23219668399997,None,236.650097597,237.065628953,237.86420890500005,238.16567198300004,237.86420890500005,None,,,,,,1,001,exponential,rgby,0.75-0.35,2021_May_17_1100,color_judgement_and_subjective_perception,2020.2.10,60.05314222661089,
0,0.9,training,1000,,,,,,0,53,53,53,,,,,,,,,,,,,238.767086554,None,d,0.495205020999947,238.86715785499996,None,238.26694719700004,238.68385193899996,239.384642707,239.884587582,239.384642707,None,,,,,,1,001,exponential,rgby,0.75-0.35,2021_May_17_1100,color_judgement_and_subjective_perception,2020.2.10,60.05314222661089,
0,0.9,training,1000,,,,,,0,54,54,54,,,,,,,,,,,,,240.48470115400005,None,d,0.4417250349999904,240.584716468,None,239.984589207,240.40134157,241.05133289399998,241.551768348,241.05133289399998,None,,,,,,1,001,exponential,rgby,0.75-0.35,2021_May_17_1100,color_judgement_and_subjective_perception,2020.2.10,60.05314222661089,
3,0.9,training,1000,,,,,,0,55,55,55,,,,,,,,,,,,,242.15168285599998,None,k,0.6947250059999988,242.25174278500003,None,241.65160738600002,242.06830913600004,242.96832036900003,243.46851652500004,242.96832036900003,None,,,,,,1,001,exponential,rgby,0.75-0.35,2021_May_17_1100,color_judgement_and_subjective_perception,2020.2.10,60.05314222661089,
1,0.9,training,1000,,,,,,0,56,56,56,,,,,,,,,,,,,244.052801209,None,f,0.7296233629999733,244.15285026499998,None,243.56860433500003,243.983991802,244.902852509,245.40313707899998,244.902852509,None,,,,,,1,001,exponential,rgby,0.75-0.35,2021_May_17_1100,color_judgement_and_subjective_perception,2020.2.10,60.05314222661089,
3,0.9,training,1000,,,,,,0,57,57,57,,,,,,,,,,,,,246.003181961,None,k,0.8992082859999755,246.10320835599998,None,245.50292126700003,245.91982383699997,247.01971348000006,247.51993702900006,247.01971348000006,None,,,,,,1,001,exponential,rgby,0.75-0.35,2021_May_17_1100,color_judgement_and_subjective_perception,2020.2.10,60.05314222661089,
1,0.9,training,1000,,,,,,0,58,58,58,,,,,,,,,,,,,248.12029221199998,None,f,0.6303023959999337,248.22013911500005,None,247.61970092399997,248.03664957,248.870040239,249.35455606799997,248.870040239,None,,,,,,1,001,exponential,rgby,0.75-0.35,2021_May_17_1100,color_judgement_and_subjective_perception,2020.2.10,60.05314222661089,
3,0.9,training,1000,,,,,,0,59,59,59,,,,,,,,,,,,,249.95440173600002,None,k,0.843921139000031,250.05455207399996,None,249.45448334700006,249.871051877,250.92122565500006,251.421621071,250.92122565500006,None,,,,,,1,001,exponential,rgby,0.75-0.35,2021_May_17_1100,color_judgement_and_subjective_perception,2020.2.10,60.05314222661089,
1,0.9,training,1000,,,,,,0,60,60,60,,,,,,,,,,,,,252.021615269,None,f,0.6088894099999607,252.121576569,None,251.52150784499997,251.93807003400002,252.75474688999998,253.25488937,252.75474688999998,None,,,,,,1,001,exponential,rgby,0.75-0.35,2021_May_17_1100,color_judgement_and_subjective_perception,2020.2.10,60.05314222661089,
1,0.9,training,1000,,,,,,0,61,61,61,,,,,,,,,,,,,253.85507948099996,None,f,0.5832237480000231,253.955217199,None,253.35478402399997,253.77174466999998,254.55614848900007,255.0560656,254.55614848900007,None,,,,,,1,001,exponential,rgby,0.75-0.35,2021_May_17_1100,color_judgement_and_subjective_perception,2020.2.10,60.05314222661089,
3,0.9,training,1000,,,,,,0,62,62,62,,,,,,,,,,,,,255.65623852199997,None,k,0.6382957820000001,255.75620654099998,None,255.15597694500002,255.57294168300007,256.422838567,256.923001894,256.422838567,None,,,,,,1,001,exponential,rgby,0.75-0.35,2021_May_17_1100,color_judgement_and_subjective_perception,2020.2.10,60.05314222661089,
0,0.9,training,1000,,,,,,0,63,63,63,,,,,,,,,,,,,257.523111038,None,d,0.5873493880000069,257.62309384599996,None,257.02291578300003,257.43985321,258.239754111,258.74006098100006,258.239754111,None,,,,,,1,001,exponential,rgby,0.75-0.35,2021_May_17_1100,color_judgement_and_subjective_perception,2020.2.10,60.05314222661089,
1,0.9,training,1000,,,,,,0,64,64,64,,,,,,,,,,,,,259.32425492000004,None,f,0.7621582809999836,259.424303626,None,258.839991347,259.241110164,260.207635579,260.70794811400003,260.207635579,None,,,,,,1,001,exponential,rgby,0.75-0.35,2021_May_17_1100,color_judgement_and_subjective_perception,2020.2.10,60.05314222661089,
0,0.9,training,1000,,,,,,0,65,65,65,,,,,,,,,,,,,261.30794316699996,None,d,0.5223311270000295,261.408134421,None,260.80775397,261.22456101500006,261.95780799400006,262.458040405,261.95780799400006,None,,,,,,1,001,exponential,rgby,0.75-0.35,2021_May_17_1100,color_judgement_and_subjective_perception,2020.2.10,60.05314222661089,
1,0.9,training,1000,,,,,,0,66,66,66,,,,,,,,,,,,,263.058126249,None,f,0.7561191309999913,263.15833402199996,None,262.55797258000007,262.97473460900005,263.94168615399997,264.425941041,263.94168615399997,None,,,,,,1,001,exponential,rgby,0.75-0.35,2021_May_17_1100,color_judgement_and_subjective_perception,2020.2.10,60.05314222661089,
2,0.9,training,1000,,,,,,0,67,67,67,,,,,,,,,,,,,265.025919501,None,j,0.3083646659999886,265.12609610800007,None,264.525906727,264.94264233800004,265.45918002200006,265.95943738200003,265.45918002200006,None,,,,,,1,001,exponential,rgby,0.75-0.35,2021_May_17_1100,color_judgement_and_subjective_perception,2020.2.10,60.05314222661089,
2,0.9,training,1000,,,,,,0,68,68,68,,,,,,,,,,,,,266.559581506,None,j,0.5827917149999848,266.659647896,None,266.059344336,266.47644741500005,267.259608019,267.75965609700006,267.259608019,None,,,,,,1,001,exponential,rgby,0.75-0.35,2021_May_17_1100,color_judgement_and_subjective_perception,2020.2.10,60.05314222661089,
3,0.9,training,1000,,,,,,0,69,69,69,,,,,,,,,,,,,268.35986445000003,None,k,0.45472856899993985,268.45974541300006,None,267.85968162000006,268.27656869,268.943052783,269.427589561,268.943052783,None,,,,,,1,001,exponential,rgby,0.75-0.35,2021_May_17_1100,color_judgement_and_subjective_perception,2020.2.10,60.05314222661089,
2,0.9,training,1000,,,,,,0,70,70,70,,,,,,,,,,,,,270.02760790800005,None,j,0.48295723599994744,270.127509216,None,269.527426214,269.944162891,270.62756319100004,271.12774840300006,270.62756319100004,None,,,,,,1,001,exponential,rgby,0.75-0.35,2021_May_17_1100,color_judgement_and_subjective_perception,2020.2.10,60.05314222661089,
0,0.9,training,1000,,,,,,0,71,71,71,,,,,,,,,,,,,271.72771921599997,None,d,0.41469344600000113,271.827785016,None,271.22768943000005,271.64471607100006,272.26110636300007,272.761333969,272.26110636300007,None,,,,,,1,001,exponential,rgby,0.75-0.35,2021_May_17_1100,color_judgement_and_subjective_perception,2020.2.10,60.05314222661089,
1,0.9,training,1000,,,,,,0,72,72,72,,,,,,,,,,,,,273.36150079699996,None,f,0.253037532999997,273.461434392,None,272.861342876,273.278005353,273.744699988,274.229103192,273.744699988,None,,,,,,1,001,exponential,rgby,0.75-0.35,2021_May_17_1100,color_judgement_and_subjective_perception,2020.2.10,60.05314222661089,
0,0.9,training,1000,,,,,,0,73,73,73,,,,,,,,,,,,,274.828997707,None,d,0.4972650509999994,274.92918850500007,None,274.329060908,274.745793577,275.445803757,275.945968807,275.445803757,None,,,,,,1,001,exponential,rgby,0.75-0.35,2021_May_17_1100,color_judgement_and_subjective_perception,2020.2.10,60.05314222661089,
1,0.9,training,1000,,,,,,0,74,74,74,,,,,,,,,,,,,276.546059066,None,f,0.28415521099998386,276.646212022,None,276.045938232,276.462883359,276.962559306,277.462969995,276.962559306,None,,,,,,1,001,exponential,rgby,0.75-0.35,2021_May_17_1100,color_judgement_and_subjective_perception,2020.2.10,60.05314222661089,
1,0.9,training,1000,,,,,,0,75,75,75,,,,,,,,,,,,,278.06299705699996,None,f,0.46351938600002995,278.162941185,None,277.56282745400006,277.979593806,278.64626512999996,279.130775933,278.64626512999996,None,,,,,,1,001,exponential,rgby,0.75-0.35,2021_May_17_1100,color_judgement_and_subjective_perception,2020.2.10,60.05314222661089,
2,0.9,training,1000,,,,,,0,76,76,76,,,,,,,,,,,,,279.730648503,None,j,0.43581528000004255,279.83064566100006,None,279.230720069,279.64743638000004,280.297239514,280.797526198,280.297239514,None,,,,,,1,001,exponential,rgby,0.75-0.35,2021_May_17_1100,color_judgement_and_subjective_perception,2020.2.10,60.05314222661089,
3,0.9,training,1000,,,,,,0,77,77,77,,,,,,,,,,,,,281.39783538000006,None,k,0.3368830760000492,281.497575612,None,280.89755948800007,281.314281416,281.86442592700007,282.36448717100006,281.86442592700007,None,,,,,,1,001,exponential,rgby,0.75-0.35,2021_May_17_1100,color_judgement_and_subjective_perception,2020.2.10,60.05314222661089,
2,0.9,training,1000,,,,,,0,78,78,78,,,,,,,,,,,,,282.964472127,None,j,0.5140283399999817,283.06443614700004,None,282.46435490299996,282.880991557,283.59789453200005,284.08215719099996,283.59789453200005,None,,,,,,1,001,exponential,rgby,0.75-0.35,2021_May_17_1100,color_judgement_and_subjective_perception,2020.2.10,60.05314222661089,
0,0.9,training,1000,,,,,,0,79,79,79,,,,,,,,,,,,,284.682239815,None,d,0.4682032270000036,284.782250049,None,284.18213370399997,284.59890223700006,285.282128878,285.782427762,285.282128878,None,,,,,,1,001,exponential,rgby,0.75-0.35,2021_May_17_1100,color_judgement_and_subjective_perception,2020.2.10,60.05314222661089,
3,0.9,training,1000,,,,,,0,80,80,80,,,,,,,,,,,,,286.38262616200007,None,k,0.6157887730000766,286.48264915799996,None,285.882400413,286.299315031,287.11576157,287.61596160199997,287.11576157,None,,,,,,1,001,exponential,rgby,0.75-0.35,2021_May_17_1100,color_judgement_and_subjective_perception,2020.2.10,60.05314222661089,
2,0.9,training,1000,,,,,,0,81,81,81,,,,,,,,,,,,,288.21619405600006,None,j,0.5743220199999541,288.31614127,None,287.716098502,288.13277985700006,288.916103635,289.40063704299996,288.916103635,None,,,,,,1,001,exponential,rgby,0.75-0.35,2021_May_17_1100,color_judgement_and_subjective_perception,2020.2.10,60.05314222661089,
3,0.9,training,1000,,,,,,0,82,82,82,,,,,,,,,,,,,290.00061263500004,None,k,0.47772008000004007,290.10066609600005,None,289.50056833100007,289.917192699,290.60061166,291.100770237,290.60061166,None,,,,,,1,001,exponential,rgby,0.75-0.35,2021_May_17_1100,color_judgement_and_subjective_perception,2020.2.10,60.05314222661089,
3,0.9,training,1000,,,,,,0,83,83,83,,,,,,,,,,,,,291.70099614900005,None,k,0.7454914420000023,291.800907543,None,291.200677507,291.61760403100004,292.56750793900005,293.067782192,292.56750793900005,None,,,,,,1,001,exponential,rgby,0.75-0.35,2021_May_17_1100,color_judgement_and_subjective_perception,2020.2.10,60.05314222661089,
2,0.9,training,1000,,,,,,0,84,84,84,,,,,,,,,,,,,293.66778708100003,None,j,0.47453551199998856,293.767878063,None,293.167630596,293.58454302000007,294.26871416899996,294.76881038700003,294.26871416899996,None,,,,,,1,001,exponential,rgby,0.75-0.35,2021_May_17_1100,color_judgement_and_subjective_perception,2020.2.10,60.05314222661089,
2,0.9,training,1000,,,,,,0,85,85,85,,,,,,,,,,,,,295.36889562400006,None,j,0.4455363770000531,295.46894624000004,None,294.86872505100007,295.28548469500004,295.93535803500004,296.43587603000003,295.93535803500004,None,,,,,,1,001,exponential,rgby,0.75-0.35,2021_May_17_1100,color_judgement_and_subjective_perception,2020.2.10,60.05314222661089,
3,0.9,training,1000,,,,,,0,86,86,86,,,,,,,,,,,,,297.03583766200006,None,k,0.3066087120000702,297.135860978,None,296.535730391,296.95251739900004,297.46906080200006,297.969189392,297.46906080200006,None,,,,,,1,001,exponential,rgby,0.75-0.35,2021_May_17_1100,color_judgement_and_subjective_perception,2020.2.10,60.05314222661089,
2,0.9,training,1000,,,,,,0,87,87,87,,,,,,,,,,,,,298.569262394,None,j,0.31700818299998446,298.66937222700005,None,298.069305277,298.48606940499997,299.012825961,299.503890493,299.012825961,None,,,,,,1,001,exponential,rgby,0.75-0.35,2021_May_17_1100,color_judgement_and_subjective_perception,2020.2.10,60.05314222661089,
3,0.9,training,1000,,,,,,0,88,88,88,,,,,,,,,,,,,300.10372745999996,None,k,0.5907015620000493,300.203754901,None,299.603657344,300.02037787899997,300.820453767,301.320617836,300.820453767,None,,,,,,1,001,exponential,rgby,0.75-0.35,2021_May_17_1100,color_judgement_and_subjective_perception,2020.2.10,60.05314222661089,
0,0.9,training,1000,,,,,,0,89,89,89,,,,,,,,,,,,,301.92084886200007,None,d,0.3976234219999242,302.02084348200003,None,301.420604657,301.837485129,302.437474736,302.937471371,302.437474736,None,,,,,,1,001,exponential,rgby,0.75-0.35,2021_May_17_1100,color_judgement_and_subjective_perception,2020.2.10,60.05314222661089,
0,0.9,training,1000,,,,,,0,90,90,90,,,,,,,,,,,,,303.537618144,None,d,0.6286479750000353,303.637722048,None,303.037410591,303.454364962,304.288516112,304.78864383100006,304.288516112,None,,,,,,1,001,exponential,rgby,0.75-0.35,2021_May_17_1100,color_judgement_and_subjective_perception,2020.2.10,60.05314222661089,
1,0.9,training,1000,,,,,,0,91,91,91,,,,,,,,,,,,,305.388695319,None,f,0.37763153299999885,305.488713235,None,304.888531641,305.305358457,305.888672565,306.38899684399996,305.888672565,None,,,,,,1,001,exponential,rgby,0.75-0.35,2021_May_17_1100,color_judgement_and_subjective_perception,2020.2.10,60.05314222661089,
2,0.9,training,1000,,,,,,0,92,92,92,,,,,,,,,,,,,306.98912749199997,None,j,0.5933051160000105,307.08913649400006,None,306.48898846200007,306.90569322,307.705558118,308.20549546300003,307.705558118,None,,,,,,1,001,exponential,rgby,0.75-0.35,2021_May_17_1100,color_judgement_and_subjective_perception,2020.2.10,60.05314222661089,
3,0.9,training,1000,,,,,,0,93,93,93,,,,,,,,,,,,,308.805761644,None,k,0.8247835189999932,308.905685382,None,308.305432088,308.722606315,309.75669264300006,310.256817417,309.75669264300006,None,,,,,,1,001,exponential,rgby,0.75-0.35,2021_May_17_1100,color_judgement_and_subjective_perception,2020.2.10,60.05314222661089,
1,0.9,training,1000,,,,,,0,94,94,94,,,,,,,,,,,,,310.856881165,None,f,0.5573493399999734,310.95709036900007,None,310.35681843200007,310.773839007,311.54051008,312.040769578,311.54051008,None,,,,,,1,001,exponential,rgby,0.75-0.35,2021_May_17_1100,color_judgement_and_subjective_perception,2020.2.10,60.05314222661089,
0,0.9,training,1000,,,,,,0,95,95,95,,,,,,,,,,,,,312.640694287,None,d,0.5336819999999989,312.740703951,None,312.14078712800006,312.55733496900007,313.30729638,313.80756794600006,313.30729638,None,,,,,,1,001,exponential,rgby,0.75-0.35,2021_May_17_1100,color_judgement_and_subjective_perception,2020.2.10,60.05314222661089,
3,0.75,testing,1000,1,,,,,,,,,0,0,0,0,0,0,0,3,,,,,335.681616181,None,None,-1,335.78172370799996,None,335.18730796600005,335.598199657,336.698426539,337.198506104,336.698426539,None,50,50,0,,,1,001,exponential,rgby,0.75-0.35,2021_May_17_1100,color_judgement_and_subjective_perception,2020.2.10,60.05314222661089,
2,0.75,testing,1000,1,,,,,,,,,0,0,0,0,0,1,1,2,,,,,337.79861239900004,None,None,-1,337.898525802,None,337.298303629,337.71528625200006,338.815297653,339.29971037000007,338.815297653,None,0,0,30,,,1,001,exponential,rgby,0.75-0.35,2021_May_17_1100,color_judgement_and_subjective_perception,2020.2.10,60.05314222661089,
0,0.75,testing,1000,1,,,,,,,,,0,0,0,0,0,2,2,0,,,,,339.899711581,None,d,0.8026933260000533,339.99975011699996,None,339.39951235,339.816397608,340.83303815,341.33339540500003,340.83303815,None,42,14,0,,,1,001,exponential,rgby,0.75-0.35,2021_May_17_1100,color_judgement_and_subjective_perception,2020.2.10,60.05314222661089,
1,0.75,testing,1000,1,,,,,,,,,0,0,0,0,0,3,3,1,,,,,341.933345744,None,f,0.7608879939999724,342.03348682600006,None,341.43344619100003,341.85009402900005,342.81662891100007,343.316995863,342.81662891100007,None,0,40,0,,,1,001,exponential,rgby,0.75-0.35,2021_May_17_1100,color_judgement_and_subjective_perception,2020.2.10,60.05314222661089,
3,0.75,testing,1000,1,,,,,,,,,0,0,0,0,1,0,4,3,,,,,343.91713294600004,None,None,-1,344.015682038,None,343.41698479700005,343.83362768200004,344.91776971,345.41811530999996,344.91776971,None,55,55,0,,,1,001,exponential,rgby,0.75-0.35,2021_May_17_1100,color_judgement_and_subjective_perception,2020.2.10,60.05314222661089,
0,0.75,testing,1000,1,,,,,,,,,0,0,0,0,1,1,5,0,,,,,346.018121684,None,d,0.6201048399999536,346.11835799000005,None,345.517980041,345.934893224,346.76831003100006,347.268454615,346.76831003100006,None,46,15,0,,,1,001,exponential,rgby,0.75-0.35,2021_May_17_1100,color_judgement_and_subjective_perception,2020.2.10,60.05314222661089,
1,0.75,testing,1000,1,,,,,,,,,0,0,0,0,1,2,6,1,,,,,347.86847445600006,None,f,0.6978663129999632,347.968601264,None,347.368404961,347.78508398400004,348.68509006299996,349.16956065700003,348.68509006299996,None,0,44,0,,,1,001,exponential,rgby,0.75-0.35,2021_May_17_1100,color_judgement_and_subjective_perception,2020.2.10,60.05314222661089,
2,0.75,testing,1000,1,,,,,,,,,0,0,0,0,1,3,7,2,,,,,349.769501332,None,j,0.5888856839999335,349.86958860799996,None,349.26942918400005,349.68619243800003,350.48617086900003,350.98634567400006,350.48617086900003,None,0,0,37,,,1,001,exponential,rgby,0.75-0.35,2021_May_17_1100,color_judgement_and_subjective_perception,2020.2.10,60.05314222661089,
1,0.75,testing,1000,1,,,,,,,,,0,0,0,0,2,0,8,1,,,,,351.58664774500005,None,f,0.8756811829999833,351.686769903,None,351.086405592,351.50340965099997,352.58654942199996,353.08677008999996,352.58654942199996,None,0,45,0,,,1,001,exponential,rgby,0.75-0.35,2021_May_17_1100,color_judgement_and_subjective_perception,2020.2.10,60.05314222661089,
2,0.75,testing,1000,1,,,,,,,,,0,0,0,0,2,1,9,2,,,,,353.68693354800007,None,None,-1,353.78696218000005,None,353.186718209,353.603439065,354.68765337499997,355.18788900000004,354.68765337499997,None,0,0,36,,,1,001,exponential,rgby,0.75-0.35,2021_May_17_1100,color_judgement_and_subjective_perception,2020.2.10,60.05314222661089,
3,0.75,testing,1000,1,,,,,,,,,0,0,0,0,2,2,10,3,,,,,355.78800457700004,None,f,0.802438498000015,355.88801105900006,None,355.287773699,355.704768272,356.72151831200006,357.22162793300004,356.72151831200006,None,58,58,0,,,1,001,exponential,rgby,0.75-0.35,2021_May_17_1100,color_judgement_and_subjective_perception,2020.2.10,60.05314222661089,
0,0.75,testing,1000,1,,,,,,,,,0,0,0,0,2,3,11,0,,,,,357.821632279,None,d,0.6405716259999963,357.92187352200006,None,357.321503464,357.73829097400005,358.58818080900005,359.07289009500005,358.58818080900005,None,49,16,0,,,1,001,exponential,rgby,0.75-0.35,2021_May_17_1100,color_judgement_and_subjective_perception,2020.2.10,60.05314222661089,
1,0.75,testing,1000,1,,,,,,,,,0,0,0,0,3,0,12,1,,,,,359.672866085,None,f,0.605680236000012,359.77277410500005,None,359.172747031,359.58945047400005,360.405908041,360.906270972,360.405908041,None,0,48,0,,,1,001,exponential,rgby,0.75-0.35,2021_May_17_1100,color_judgement_and_subjective_perception,2020.2.10,60.05314222661089,
0,0.75,testing,1000,1,,,,,,,,,0,0,0,0,3,1,13,0,,,,,361.50649162499997,None,d,0.6359793959999251,361.606489193,None,361.006211139,361.423145739,362.27297913999996,362.773253353,362.27297913999996,None,52,17,0,,,1,001,exponential,rgby,0.75-0.35,2021_May_17_1100,color_judgement_and_subjective_perception,2020.2.10,60.05314222661089,
3,0.75,testing,1000,1,,,,,,,,,0,0,0,0,3,2,14,3,,,,,363.37338057700003,None,f,0.8171519119999857,363.473327485,None,362.87310105000006,363.28989526099997,364.307488033,364.807675486,364.307488033,None,61,61,0,,,1,001,exponential,rgby,0.75-0.35,2021_May_17_1100,color_judgement_and_subjective_perception,2020.2.10,60.05314222661089,
2,0.75,testing,1000,1,,,,,,,,,0,0,0,0,3,3,15,2,,,,,365.407643388,None,j,0.8307089920000408,365.507759243,None,364.907686622,365.32445887899996,366.357823964,366.85811974500007,366.357823964,None,0,0,41,,,1,001,exponential,rgby,0.75-0.35,2021_May_17_1100,color_judgement_and_subjective_perception,2020.2.10,60.05314222661089,
3,0.75,testing,1000,1,,,,,,,,,0,0,0,0,4,0,16,3,,,,,367.45814370900007,None,None,-1,367.558098867,None,366.958035689,367.374766778,368.47481562200005,368.975092043,368.47481562200005,None,64,64,0,,,1,001,exponential,rgby,0.75-0.35,2021_May_17_1100,color_judgement_and_subjective_perception,2020.2.10,60.05314222661089,
0,0.75,testing,1000,1,,,,,,,,,0,0,0,0,4,1,17,0,,,,,369.55904405700005,None,d,0.5752740679999988,369.659174763,None,369.05918978299997,369.47577457400007,370.25899068600006,370.759501869,370.25899068600006,None,53,18,0,,,1,001,exponential,rgby,0.75-0.35,2021_May_17_1100,color_judgement_and_subjective_perception,2020.2.10,60.05314222661089,
1,0.75,testing,1000,1,,,,,,,,,0,0,0,0,4,2,18,1,,,,,371.359718962,None,f,0.48672993299999234,371.459723067,None,370.859403895,371.27626090600006,371.97619174500005,372.47631441600004,371.97619174500005,None,0,51,0,,,1,001,exponential,rgby,0.75-0.35,2021_May_17_1100,color_judgement_and_subjective_perception,2020.2.10,60.05314222661089,
2,0.75,testing,1000,1,,,,,,,,,0,0,0,0,4,3,19,2,,,,,373.07645122200006,None,j,0.48201289600001473,373.17647395899996,None,372.57634121600006,372.99303091600007,373.676368087,374.16084517499996,373.676368087,None,0,0,46,,,1,001,exponential,rgby,0.75-0.35,2021_May_17_1100,color_judgement_and_subjective_perception,2020.2.10,60.05314222661089,
0,0.75,testing,1000,1,,,,,,,,,0,0,0,0,5,0,20,0,,,,,374.76092838,None,d,0.6774415249999493,374.86092719300007,None,374.260835894,374.67741069600004,375.560884945,376.061088746,375.560884945,None,53,18,0,,,1,001,exponential,rgby,0.75-0.35,2021_May_17_1100,color_judgement_and_subjective_perception,2020.2.10,60.05314222661089,
2,0.75,testing,1000,1,,,,,,,,,0,0,0,0,5,1,21,2,,,,,376.661289752,None,j,0.7853741600000603,376.761102402,None,376.160902188,376.57820987599996,377.57778913699997,378.07802552400005,377.57778913699997,None,0,0,45,,,1,001,exponential,rgby,0.75-0.35,2021_May_17_1100,color_judgement_and_subjective_perception,2020.2.10,60.05314222661089,
1,0.75,testing,1000,1,,,,,,,,,0,0,0,0,5,2,22,1,,,,,378.678173548,None,f,0.6563765920000151,378.778076265,None,378.17795061900006,378.59495751300005,379.462316097,379.96249171600005,379.462316097,None,0,48,0,,,1,001,exponential,rgby,0.75-0.35,2021_May_17_1100,color_judgement_and_subjective_perception,2020.2.10,60.05314222661089,
3,0.75,testing,1000,1,,,,,,,,,0,0,0,0,5,3,23,3,,,,,380.56255115,None,k,0.5638932309999518,380.662585694,None,380.062308198,380.47935044999997,381.24594496099996,381.74624000100005,381.24594496099996,None,64,64,0,,,1,001,exponential,rgby,0.75-0.35,2021_May_17_1100,color_judgement_and_subjective_perception,2020.2.10,60.05314222661089,
3,0.75,testing,1000,1,,,,,,,,,0,0,0,0,6,0,24,3,,,,,382.34617385900003,None,k,0.7562541199999941,382.44621721199997,None,381.846140966,382.26284617700003,383.22950156,383.72965863600007,383.22950156,None,64,64,0,,,1,001,exponential,rgby,0.75-0.35,2021_May_17_1100,color_judgement_and_subjective_perception,2020.2.10,60.05314222661089,
2,0.75,testing,1000,1,,,,,,,,,0,0,0,0,6,1,25,2,,,,,384.314165407,None,j,0.6283501510000633,384.414117133,None,383.82970173700005,384.230770611,385.063974455,385.56416318000004,385.063974455,None,0,0,42,,,1,001,exponential,rgby,0.75-0.35,2021_May_17_1100,color_judgement_and_subjective_perception,2020.2.10,60.05314222661089,
0,0.75,testing,1000,1,,,,,,,,,0,0,0,0,6,2,26,0,,,,,386.16437070200004,None,d,0.6338820280000164,386.264502309,None,385.66410728799997,386.080962439,386.93077232200005,387.431053055,386.93077232200005,None,46,15,0,,,1,001,exponential,rgby,0.75-0.35,2021_May_17_1100,color_judgement_and_subjective_perception,2020.2.10,60.05314222661089,
1,0.75,testing,1000,1,,,,,,,,,0,0,0,0,6,3,27,1,,,,,388.031241574,None,f,0.5352650729998913,388.13121583400005,None,387.531165631,387.94784999800004,388.69792614799996,389.18223815400006,388.69792614799996,None,0,42,0,,,1,001,exponential,rgby,0.75-0.35,2021_May_17_1100,color_judgement_and_subjective_perception,2020.2.10,60.05314222661089,
0,0.75,testing,1000,1,,,,,,,,,0,0,0,0,7,0,28,0,,,,,389.78226360300005,None,d,0.6641420889999381,389.88231203400005,None,389.28212534600004,389.69890168899997,390.565655373,391.06582960900005,390.565655373,None,43,14,0,,,1,001,exponential,rgby,0.75-0.35,2021_May_17_1100,color_judgement_and_subjective_perception,2020.2.10,60.05314222661089,
2,0.75,testing,1000,1,,,,,,,,,0,0,0,0,7,1,29,2,,,,,391.66603873200006,None,j,0.7325173200000563,391.76595107700007,None,391.165884925,391.582808313,392.51590319900004,393.016117831,392.51590319900004,None,0,0,37,,,1,001,exponential,rgby,0.75-0.35,2021_May_17_1100,color_judgement_and_subjective_perception,2020.2.10,60.05314222661089,
1,0.75,testing,1000,1,,,,,,,,,0,0,0,0,7,2,30,1,,,,,393.616271933,None,f,0.6860688069999696,393.71640048300003,None,393.11594036200006,393.53294145999996,394.433694233,394.93385635900006,394.433694233,None,0,38,0,,,1,001,exponential,rgby,0.75-0.35,2021_May_17_1100,color_judgement_and_subjective_perception,2020.2.10,60.05314222661089,
3,0.75,testing,1000,1,,,,,,,,,0,0,0,0,7,3,31,3,,,,,395.533941691,None,k,0.792411173000005,395.63404665999997,None,395.033896735,395.45062584900006,396.45073108500003,396.95103864300006,396.45073108500003,None,58,58,0,,,1,001,exponential,rgby,0.75-0.35,2021_May_17_1100,color_judgement_and_subjective_perception,2020.2.10,60.05314222661089,
1,0.75,testing,1000,1,,,,,,,,,0,0,0,0,8,0,32,1,,,,,397.55106949000003,None,None,-1,397.651061346,None,397.050808392,397.467622345,398.56772359900003,399.05258495199996,398.56772359900003,None,0,35,0,,,1,001,exponential,rgby,0.75-0.35,2021_May_17_1100,color_judgement_and_subjective_perception,2020.2.10,60.05314222661089,
0,0.75,testing,1000,1,,,,,,,,,0,0,0,0,8,1,33,0,,,,,399.65228530499996,None,d,0.41035279099992295,399.75211859399997,None,399.1520597,399.568805904,400.18527772100003,400.685546047,400.18527772100003,None,39,13,0,,,1,001,exponential,rgby,0.75-0.35,2021_May_17_1100,color_judgement_and_subjective_perception,2020.2.10,60.05314222661089,
3,0.75,testing,1000,1,,,,,,,,,0,0,0,0,8,2,34,3,,,,,401.28576813000006,None,k,0.7766790979999314,401.385791883,None,400.78555808400006,401.202466554,402.185723423,402.685951017,402.185723423,None,58,58,0,,,1,001,exponential,rgby,0.75-0.35,2021_May_17_1100,color_judgement_and_subjective_perception,2020.2.10,60.05314222661089,
2,0.75,testing,1000,1,,,,,,,,,0,0,0,0,8,3,35,2,,,,,403.28600148500004,None,j,0.5683049719999644,403.386151252,None,402.78589732,403.202610724,403.98607393200007,404.470477843,403.98607393200007,None,0,0,32,,,1,001,exponential,rgby,0.75-0.35,2021_May_17_1100,color_judgement_and_subjective_perception,2020.2.10,60.05314222661089,
1,0.75,testing,1000,1,,,,,,,,,0,0,0,0,9,0,36,1,,,,,405.070413078,None,f,0.4881342510000195,405.170365143,None,404.570294162,404.987026529,405.68710389800003,406.187360106,405.68710389800003,None,0,34,0,,,1,001,exponential,rgby,0.75-0.35,2021_May_17_1100,color_judgement_and_subjective_perception,2020.2.10,60.05314222661089,
2,0.75,testing,1000,1,,,,,,,,,0,0,0,0,9,1,37,2,,,,,406.78745814900003,None,j,0.8829284059999054,406.88755120100006,None,406.28729240100006,406.7041084,407.787442544,408.28761916999997,407.787442544,None,0,0,29,,,1,001,exponential,rgby,0.75-0.35,2021_May_17_1100,color_judgement_and_subjective_perception,2020.2.10,60.05314222661089,
0,0.75,testing,1000,1,,,,,,,,,0,0,0,0,9,2,38,0,,,,,408.88783208300003,None,d,0.590783616000067,408.98768328000006,None,408.387493932,408.804383496,409.60512041000004,410.10522011,409.60512041000004,None,33,11,0,,,1,001,exponential,rgby,0.75-0.35,2021_May_17_1100,color_judgement_and_subjective_perception,2020.2.10,60.05314222661089,
3,0.75,testing,1000,1,,,,,,,,,0,0,0,0,9,3,39,3,,,,,410.705523591,None,k,0.5890285519999452,410.805439998,None,410.20521344100007,410.622116312,411.42213671,411.92244125700006,411.42213671,None,52,52,0,,,1,001,exponential,rgby,0.75-0.35,2021_May_17_1100,color_judgement_and_subjective_perception,2020.2.10,60.05314222661089,
0,0.75,testing,1000,1,,,,,,,,,0,0,0,0,10,0,40,0,,,,,412.52243498200005,None,d,0.6279379459999745,412.622428755,None,412.02222748400004,412.43909897699996,413.272329463,413.77275537,413.272329463,None,30,10,0,,,1,001,exponential,rgby,0.75-0.35,2021_May_17_1100,color_judgement_and_subjective_perception,2020.2.10,60.05314222661089,
1,0.75,testing,1000,1,,,,,,,,,0,0,0,0,10,1,41,1,,,,,414.35691292399997,None,None,-1,414.456947509,None,413.872642768,414.273442984,415.373472934,415.87374381300003,415.373472934,None,0,28,0,,,1,001,exponential,rgby,0.75-0.35,2021_May_17_1100,color_judgement_and_subjective_perception,2020.2.10,60.05314222661089,
3,0.75,testing,1000,1,,,,,,,,,0,0,0,0,10,2,42,3,,,,,416.474040609,None,k,0.7725961310000002,416.57387602100005,None,415.97389142099996,416.39060436700004,417.37381535099996,417.874049957,417.37381535099996,None,50,50,0,,,1,001,exponential,rgby,0.75-0.35,2021_May_17_1100,color_judgement_and_subjective_perception,2020.2.10,60.05314222661089,
2,0.75,testing,1000,1,,,,,,,,,0,0,0,0,10,3,43,2,,,,,418.474165543,None,j,0.7723245849999785,418.574159665,None,417.97399209800005,418.39089413400006,419.37513523000007,419.87519791700004,419.37513523000007,None,0,0,24,,,1,001,exponential,rgby,0.75-0.35,2021_May_17_1100,color_judgement_and_subjective_perception,2020.2.10,60.05314222661089,
1,0.75,testing,1000,1,,,,,,,,,0,0,0,0,11,0,44,1,,,,,420.47527610200007,None,None,-1,420.57527873699996,None,419.975083995,420.39197235899996,421.49198593100004,421.99228457800007,421.49198593100004,None,0,28,0,,,1,001,exponential,rgby,0.75-0.35,2021_May_17_1100,color_judgement_and_subjective_perception,2020.2.10,60.05314222661089,
2,0.75,testing,1000,1,,,,,,,,,0,0,0,0,11,1,45,2,,,,,422.59243748200004,None,j,0.5821809679999888,422.692269293,None,422.092138642,422.50895091000007,423.29211687300005,423.79246532800005,423.29211687300005,None,0,0,23,,,1,001,exponential,rgby,0.75-0.35,2021_May_17_1100,color_judgement_and_subjective_perception,2020.2.10,60.05314222661089,
0,0.75,testing,1000,1,,,,,,,,,0,0,0,0,11,2,46,0,,,,,424.37683760000004,None,d,0.6856525129999227,424.47679161300005,None,423.89237509500003,424.29340019100005,425.193312717,425.693527723,425.193312717,None,29,10,0,,,1,001,exponential,rgby,0.75-0.35,2021_May_17_1100,color_judgement_and_subjective_perception,2020.2.10,60.05314222661089,
3,0.75,testing,1000,1,,,,,,,,,0,0,0,0,11,3,47,3,,,,,426.29374423700006,None,k,0.8327518679999457,426.393711121,None,425.79345604900004,426.210486444,427.243688714,427.74378201800005,427.243688714,None,48,48,0,,,1,001,exponential,rgby,0.75-0.35,2021_May_17_1100,color_judgement_and_subjective_perception,2020.2.10,60.05314222661089,
0,0.75,testing,1000,1,,,,,,,,,0,0,0,0,12,0,48,0,,,,,428.343934105,None,j,0.6944468589999815,428.44396278,None,427.843803342,428.260674227,429.161509079,429.66180964600005,429.161509079,None,26,9,0,,,1,001,exponential,rgby,0.75-0.35,2021_May_17_1100,color_judgement_and_subjective_perception,2020.2.10,60.05314222661089,
1,0.75,testing,1000,1,,,,,,,,,0,0,0,0,12,1,49,1,,,,,430.26172992500005,None,f,0.8646820110000135,430.36170753700003,None,429.761718609,430.178277351,431.244790115,431.745341984,431.244790115,None,0,30,0,,,1,001,exponential,rgby,0.75-0.35,2021_May_17_1100,color_judgement_and_subjective_perception,2020.2.10,60.05314222661089,
3,0.75,testing,1000,1,,,,,,,,,0,0,0,0,12,2,50,3,,,,,432.34551827200005,None,k,0.757072131999962,432.44537214600007,None,431.84548900000004,432.26209150700004,433.228730628,433.72902266799997,433.228730628,None,48,48,0,,,1,001,exponential,rgby,0.75-0.35,2021_May_17_1100,color_judgement_and_subjective_perception,2020.2.10,60.05314222661089,
2,0.75,testing,1000,1,,,,,,,,,0,0,0,0,12,3,51,2,,,,,434.31339262000006,None,j,0.8611789809999664,434.41316983,None,433.82888998199996,434.230001154,435.29648392800004,435.79664356600006,435.29648392800004,None,0,0,22,,,1,001,exponential,rgby,0.75-0.35,2021_May_17_1100,color_judgement_and_subjective_perception,2020.2.10,60.05314222661089,
1,0.75,testing,1000,1,,,,,,,,,0,0,0,0,13,0,52,1,,,,,436.39690590500004,None,None,-1,436.49705528900006,None,435.89676338000004,436.313481058,437.413534787,437.91372157800004,437.413534787,None,0,30,0,,,1,001,exponential,rgby,0.75-0.35,2021_May_17_1100,color_judgement_and_subjective_perception,2020.2.10,60.05314222661089,
0,0.75,testing,1000,1,,,,,,,,,0,0,0,0,13,1,53,0,,,,,438.513799512,None,d,0.6284923599999956,438.61386632000006,None,438.013663522,438.430447256,439.26473147,439.76480722100007,439.26473147,None,28,9,0,,,1,001,exponential,rgby,0.75-0.35,2021_May_17_1100,color_judgement_and_subjective_perception,2020.2.10,60.05314222661089,
3,0.75,testing,1000,1,,,,,,,,,0,0,0,0,13,2,54,3,,,,,440.36491639400003,None,None,-1,440.464816081,None,439.864784377,440.28144993,441.381687981,441.88194687199996,441.381687981,None,47,47,0,,,1,001,exponential,rgby,0.75-0.35,2021_May_17_1100,color_judgement_and_subjective_perception,2020.2.10,60.05314222661089,
2,0.75,testing,1000,1,,,,,,,,,0,0,0,0,13,3,55,2,,,,,442.481886594,None,j,0.6685932340001273,442.5818759310001,None,441.98175431100003,442.398549816,443.2818109230001,443.7821536990001,443.2818109230001,None,0,0,23,,,1,001,exponential,rgby,0.75-0.35,2021_May_17_1100,color_judgement_and_subjective_perception,2020.2.10,60.05314222661089,
0,0.75,testing,1000,1,,,,,,,,,0,0,0,0,14,0,56,0,,,,,444.36648933699996,None,d,0.7520587930000602,444.466368406,None,443.88211528399995,444.28317310499995,445.24963171799993,445.7497949530001,445.24963171799993,None,30,10,0,,,1,001,exponential,rgby,0.75-0.35,2021_May_17_1100,color_judgement_and_subjective_perception,2020.2.10,60.05314222661089,
2,0.75,testing,1000,1,,,,,,,,,0,0,0,0,14,1,57,2,,,,,446.35012174099995,None,j,0.8163330130000759,446.450127491,None,445.849859025,446.266690951,447.281987835,447.7667538290001,447.281987835,None,0,0,22,,,1,001,exponential,rgby,0.75-0.35,2021_May_17_1100,color_judgement_and_subjective_perception,2020.2.10,60.05314222661089,
3,0.75,testing,1000,1,,,,,,,,,0,0,0,0,14,2,58,3,,,,,448.366973498,None,f,0.47947431099987625,448.466989767,None,447.86687628800007,448.283616971,448.9669380240001,449.451556374,448.9669380240001,None,48,48,0,,,1,001,exponential,rgby,0.75-0.35,2021_May_17_1100,color_judgement_and_subjective_perception,2020.2.10,60.05314222661089,
1,0.75,testing,1000,1,,,,,,,,,0,0,0,0,14,3,59,1,,,,,450.0514669610001,None,f,0.8832789559999128,450.1511755329999,None,449.551136787,449.96798458499995,451.05132316800007,451.5517689930001,451.05132316800007,None,0,34,0,,,1,001,exponential,rgby,0.75-0.35,2021_May_17_1100,color_judgement_and_subjective_perception,2020.2.10,60.05314222661089,
3,0.75,testing,1000,1,,,,,,,,,0,0,0,0,15,0,60,3,,,,,452.1517492070001,None,k,0.7346872109999367,452.2517360190001,None,451.651670005,452.06849716199997,453.0183279240001,453.518637002,453.0183279240001,None,51,51,0,,,1,001,exponential,rgby,0.75-0.35,2021_May_17_1100,color_judgement_and_subjective_perception,2020.2.10,60.05314222661089,
1,0.75,testing,1000,1,,,,,,,,,0,0,0,0,15,1,61,1,,,,,454.10291333199996,None,f,0.6716293970000606,454.2028438000001,None,453.6185625070001,454.03529199499997,454.9028027139999,455.40283816199997,454.9028027139999,None,0,35,0,,,1,001,exponential,rgby,0.75-0.35,2021_May_17_1100,color_judgement_and_subjective_perception,2020.2.10,60.05314222661089,
0,0.75,testing,1000,1,,,,,,,,,0,0,0,0,15,2,62,0,,,,,456.003190517,None,d,0.7072785370000929,456.1031610399999,None,455.50289087,455.919902103,456.8366015580001,457.3367373520001,456.8366015580001,None,27,9,0,,,1,001,exponential,rgby,0.75-0.35,2021_May_17_1100,color_judgement_and_subjective_perception,2020.2.10,60.05314222661089,
2,0.75,testing,1000,1,,,,,,,,,0,0,0,0,15,3,63,2,,,,,457.93667741499996,None,None,-1,458.0368432260001,None,457.436756061,457.85340496800006,458.95334567199995,459.43777594000005,458.95334567199995,None,0,0,19,,,1,001,exponential,rgby,0.75-0.35,2021_May_17_1100,color_judgement_and_subjective_perception,2020.2.10,60.05314222661089,
3,0.75,testing,1000,1,,,,,,,,,0,0,0,0,16,0,64,3,,,,,460.0378813159999,None,None,-1,460.1379836970001,None,459.53772358799995,459.95443631399996,461.054677231,461.5549395659999,461.054677231,None,50,50,0,,,1,001,exponential,rgby,0.75-0.35,2021_May_17_1100,color_judgement_and_subjective_perception,2020.2.10,60.05314222661089,
1,0.75,testing,1000,1,,,,,,,,,0,0,0,0,16,1,65,1,,,,,462.15490633,None,j,0.8915367609999976,462.2549190369999,None,461.65485895099994,462.0715012039999,463.1715033649999,463.67173196300007,463.1715033649999,None,0,36,0,,,1,001,exponential,rgby,0.75-0.35,2021_May_17_1100,color_judgement_and_subjective_perception,2020.2.10,60.05314222661089,
0,0.75,testing,1000,1,,,,,,,,,0,0,0,0,16,2,66,0,,,,,464.25608264100003,None,d,0.6863582329999645,464.35609827099995,None,463.7716064350001,464.1726917960001,465.0726889230001,465.57286115299996,465.0726889230001,None,28,9,0,,,1,001,exponential,rgby,0.75-0.35,2021_May_17_1100,color_judgement_and_subjective_perception,2020.2.10,60.05314222661089,
2,0.75,testing,1000,1,,,,,,,,,0,0,0,0,16,3,67,2,,,,,466.1731864310001,None,j,0.6892750409999735,466.27317797700005,None,465.6729437990001,466.089782939,466.989757037,467.4897905230001,466.989757037,None,0,0,24,,,1,001,exponential,rgby,0.75-0.35,2021_May_17_1100,color_judgement_and_subjective_perception,2020.2.10,60.05314222661089,
0,0.75,testing,1000,1,,,,,,,,,0,0,0,0,17,0,68,0,,,,,468.08978863000004,None,d,0.7244936949998646,468.189946329,None,467.589814604,468.00665965199994,468.9397923770001,469.4242790469999,468.9397923770001,None,29,10,0,,,1,001,exponential,rgby,0.75-0.35,2021_May_17_1100,color_judgement_and_subjective_perception,2020.2.10,60.05314222661089,
1,0.75,testing,1000,1,,,,,,,,,0,0,0,0,17,1,69,1,,,,,470.02442252599997,None,f,0.726057118999961,470.12440918799996,None,469.5242789970001,469.9410281670001,470.8743265510001,471.37468044700006,470.8743265510001,None,0,39,0,,,1,001,exponential,rgby,0.75-0.35,2021_May_17_1100,color_judgement_and_subjective_perception,2020.2.10,60.05314222661089,
3,0.75,testing,1000,1,,,,,,,,,0,0,0,0,17,2,70,3,,,,,471.97479717199997,None,k,0.5275994640001045,472.0747824430001,None,471.47466612100004,471.8915010070001,472.624632617,473.1248804360001,472.624632617,None,53,53,0,,,1,001,exponential,rgby,0.75-0.35,2021_May_17_1100,color_judgement_and_subjective_perception,2020.2.10,60.05314222661089,
2,0.75,testing,1000,1,,,,,,,,,0,0,0,0,17,3,71,2,,,,,473.7249061020001,None,j,0.7853984480000236,473.825074083,None,473.22477257699995,473.6417211920001,474.642385064,475.14273386499997,474.642385064,None,0,0,21,,,1,001,exponential,rgby,0.75-0.35,2021_May_17_1100,color_judgement_and_subjective_perception,2020.2.10,60.05314222661089,
0,0.75,testing,1000,1,,,,,,,,,0,0,0,0,18,0,72,0,,,,,475.7428277380001,None,d,0.5834630360000119,475.842918813,None,475.24246232200005,475.65942607499994,476.4593851830001,476.95974212299996,476.4593851830001,None,24,8,0,,,1,001,exponential,rgby,0.75-0.35,2021_May_17_1100,color_judgement_and_subjective_perception,2020.2.10,60.05314222661089,
3,0.75,testing,1000,1,,,,,,,,,0,0,0,0,18,1,73,3,,,,,477.55972136699995,None,k,0.8148979740001323,477.65955326200003,None,477.05959702000007,477.4763486620001,478.493191419,478.993100112,478.493191419,None,51,51,0,,,1,001,exponential,rgby,0.75-0.35,2021_May_17_1100,color_judgement_and_subjective_perception,2020.2.10,60.05314222661089,
1,0.75,testing,1000,1,,,,,,,,,0,0,0,0,18,2,74,1,,,,,479.5776450720001,None,f,0.764995018000036,479.67746853899996,None,479.079444392,479.494269916,480.46088957099994,480.96089949500004,480.46088957099994,None,0,35,0,,,1,001,exponential,rgby,0.75-0.35,2021_May_17_1100,color_judgement_and_subjective_perception,2020.2.10,60.05314222661089,
2,0.75,testing,1000,1,,,,,,,,,0,0,0,0,18,3,75,2,,,,,481.5613102819999,None,d,0.8851358039999013,481.66132919099994,None,481.0609291899999,481.477899053,482.57777309100004,483.07799347799994,482.57777309100004,None,0,0,16,,,1,001,exponential,rgby,0.75-0.35,2021_May_17_1100,color_judgement_and_subjective_perception,2020.2.10,60.05314222661089,
2,0.75,testing,1000,1,,,,,,,,,0,0,0,0,19,0,76,2,,,,,483.67812068699993,None,j,0.6962911829998575,483.7782033290001,None,483.17795392999994,483.594762801,484.4956330179999,484.9957240550001,484.4956330179999,None,0,0,18,,,1,001,exponential,rgby,0.75-0.35,2021_May_17_1100,color_judgement_and_subjective_perception,2020.2.10,60.05314222661089,
1,0.75,testing,1000,1,,,,,,,,,0,0,0,0,19,1,77,1,,,,,485.595897563,None,None,-1,485.6958400330001,None,485.09576454599994,485.51256335999994,486.61270288899993,487.112855104,486.61270288899993,None,0,35,0,,,1,001,exponential,rgby,0.75-0.35,2021_May_17_1100,color_judgement_and_subjective_perception,2020.2.10,60.05314222661089,
3,0.75,testing,1000,1,,,,,,,,,0,0,0,0,19,2,78,3,,,,,487.712865072,None,f,0.5333915420001176,487.81295979699996,None,487.212822652,487.6295190290001,488.3795985780001,488.879724989,488.3795985780001,None,51,51,0,,,1,001,exponential,rgby,0.75-0.35,2021_May_17_1100,color_judgement_and_subjective_perception,2020.2.10,60.05314222661089,
0,0.75,testing,1000,1,,,,,,,,,0,0,0,0,19,3,79,0,,,,,489.46405594400005,None,j,0.6943098660001397,489.5640607639999,None,488.97966677700003,489.3806993679999,490.2806565080001,490.78083905000005,490.2806565080001,None,22,7,0,,,1,001,exponential,rgby,0.75-0.35,2021_May_17_1100,color_judgement_and_subjective_perception,2020.2.10,60.05314222661089,
2,0.75,testing,1000,1,,,,,,,,,0,0,0,0,20,0,80,2,,,,,491.38109534500006,None,None,-1,491.48104959599993,None,490.88085254200007,491.29775835199996,492.3977407599999,492.8979190189999,492.3977407599999,None,0,0,21,,,1,001,exponential,rgby,0.75-0.35,2021_May_17_1100,color_judgement_and_subjective_perception,2020.2.10,60.05314222661089,
3,0.75,testing,1000,1,,,,,,,,,0,0,0,0,20,1,81,3,,,,,493.4979584849999,None,None,-1,493.5979423750001,None,492.99784598400004,493.41460986699997,494.49890603999995,494.99896653999997,494.49890603999995,None,55,55,0,,,1,001,exponential,rgby,0.75-0.35,2021_May_17_1100,color_judgement_and_subjective_perception,2020.2.10,60.05314222661089,
0,0.75,testing,1000,1,,,,,,,,,0,0,0,0,20,2,82,0,,,,,495.5989087290001,None,d,0.6953602199998841,495.6991019190001,None,495.0989234289999,495.515779939,496.41582282699994,496.91608163500007,496.41582282699994,None,26,9,0,,,1,001,exponential,rgby,0.75-0.35,2021_May_17_1100,color_judgement_and_subjective_perception,2020.2.10,60.05314222661089,
1,0.75,testing,1000,1,,,,,,,,,0,0,0,0,20,3,83,1,,,,,497.51604249700006,None,f,0.7941530789998978,497.6162144000001,None,497.01597101699997,497.4327074439999,498.4327359729999,498.932959481,498.4327359729999,None,0,42,0,,,1,001,exponential,rgby,0.75-0.35,2021_May_17_1100,color_judgement_and_subjective_perception,2020.2.10,60.05314222661089,
1,0.75,testing,1000,1,,,,,,,,,0,0,0,0,21,0,84,1,,,,,499.5171829520001,None,None,-1,499.617154205,None,499.03283223100004,499.43388986599996,500.53384647099995,501.03423961500005,500.53384647099995,None,0,44,0,,,1,001,exponential,rgby,0.75-0.35,2021_May_17_1100,color_judgement_and_subjective_perception,2020.2.10,60.05314222661089,
2,0.75,testing,1000,1,,,,,,,,,0,0,0,0,21,1,85,2,,,,,501.634205621,None,j,0.7401697910001985,501.73428327,None,501.1339921990001,501.55092554400005,502.50318528800005,503.00099667899997,502.50318528800005,None,0,0,27,,,1,001,exponential,rgby,0.75-0.35,2021_May_17_1100,color_judgement_and_subjective_perception,2020.2.10,60.05314222661089,
0,0.75,testing,1000,1,,,,,,,,,0,0,0,0,21,2,86,0,,,,,503.601028767,None,d,0.6292851099999552,503.701177411,None,503.1010151019999,503.5178276590001,504.351938294,504.8519927609999,504.351938294,None,29,10,0,,,1,001,exponential,rgby,0.75-0.35,2021_May_17_1100,color_judgement_and_subjective_perception,2020.2.10,60.05314222661089,
3,0.75,testing,1000,1,,,,,,,,,0,0,0,0,21,3,87,3,,,,,505.45220101300004,None,k,0.8261072839998178,505.5523477170001,None,504.952153284,505.36883792900005,506.402315618,506.90257978600005,506.402315618,None,62,62,0,,,1,001,exponential,rgby,0.75-0.35,2021_May_17_1100,color_judgement_and_subjective_perception,2020.2.10,60.05314222661089,
3,0.75,testing,1000,1,,,,,,,,,0,0,0,0,22,0,88,3,,,,,507.5026331590001,None,f,0.7838038669999605,507.6025839340001,None,507.002437128,507.419157617,508.4191315930001,508.9195103159999,508.4191315930001,None,62,62,0,,,1,001,exponential,rgby,0.75-0.35,2021_May_17_1100,color_judgement_and_subjective_perception,2020.2.10,60.05314222661089,
1,0.75,testing,1000,1,,,,,,,,,0,0,0,0,22,1,89,1,,,,,509.5037625189999,None,f,0.68665319500019,509.603799569,None,509.019479186,509.4204962320001,510.320355984,510.82042036099995,510.320355984,None,0,48,0,,,1,001,exponential,rgby,0.75-0.35,2021_May_17_1100,color_judgement_and_subjective_perception,2020.2.10,60.05314222661089,
2,0.75,testing,1000,1,,,,,,,,,0,0,0,0,22,2,90,2,,,,,511.420742336,None,j,0.6576935749999393,511.52077781800006,None,510.920612002,511.33733358999996,512.203930214,512.704073813,512.203930214,None,0,0,31,,,1,001,exponential,rgby,0.75-0.35,2021_May_17_1100,color_judgement_and_subjective_perception,2020.2.10,60.05314222661089,
0,0.75,testing,1000,1,,,,,,,,,0,0,0,0,22,3,91,0,,,,,513.3042335690001,None,d,0.5902008890000161,513.404272273,None,512.8040925649999,513.220948092,514.02092592,514.505326765,514.02092592,None,29,10,0,,,1,001,exponential,rgby,0.75-0.35,2021_May_17_1100,color_judgement_and_subjective_perception,2020.2.10,60.05314222661089,
1,0.75,testing,1000,1,,,,,,,,,0,0,0,0,23,0,92,1,,,,,515.1053449940001,None,f,0.5250943689998167,515.2053586380001,None,514.605201045,515.0219449939999,515.755279262,516.2555862400001,515.755279262,None,0,48,0,,,1,001,exponential,rgby,0.75-0.35,2021_May_17_1100,color_judgement_and_subjective_perception,2020.2.10,60.05314222661089,
3,0.75,testing,1000,1,,,,,,,,,0,0,0,0,23,1,93,3,,,,,516.8558401710001,None,k,0.7346671079999396,516.955788313,None,516.35561711,516.772407504,517.722285055,518.2224158309999,517.722285055,None,62,62,0,,,1,001,exponential,rgby,0.75-0.35,2021_May_17_1100,color_judgement_and_subjective_perception,2020.2.10,60.05314222661089,
2,0.75,testing,1000,1,,,,,,,,,0,0,0,0,23,2,94,2,,,,,518.822620944,None,j,0.7918180369999845,518.9226553300001,None,518.3224422540001,518.7393391730001,519.7401507170001,520.2403761889999,519.7401507170001,None,0,0,26,,,1,001,exponential,rgby,0.75-0.35,2021_May_17_1100,color_judgement_and_subjective_perception,2020.2.10,60.05314222661089,
0,0.75,testing,1000,1,,,,,,,,,0,0,0,0,23,3,95,0,,,,,520.8404853650001,None,d,0.43802600999993047,520.940441371,None,520.3403182440001,520.7571931819999,521.406993442,521.907370993,521.406993442,None,24,8,0,,,1,001,exponential,rgby,0.75-0.35,2021_May_17_1100,color_judgement_and_subjective_perception,2020.2.10,60.05314222661089,
2,0.75,testing,1000,1,,,,,,,,,0,0,0,0,,,,,0,0,0,2,551.533440991,None,j,0.5050348049999229,551.63344632,None,551.0363227460001,551.450122845,552.1675663320001,552.66680764,552.1675663320001,None,0,0,23,522.0244196499999,None,1,001,exponential,rgby,0.75-0.35,2021_May_17_1100,color_judgement_and_subjective_perception,2020.2.10,60.05314222661089,
0,0.75,testing,1000,1,,,,,,,,,0,0,0,0,,,,,0,1,1,0,553.266876414,None,d,0.49954596500015214,553.3669261040001,None,552.7666570600001,553.1832936700001,553.8843665820001,554.367811099,553.8843665820001,None,21,7,0,None,None,1,001,exponential,rgby,0.75-0.35,2021_May_17_1100,color_judgement_and_subjective_perception,2020.2.10,60.05314222661089,
2,0.75,testing,1000,1,,,,,,,,,0,0,0,0,,,,,0,2,2,2,554.968118639,None,j,0.5984704170000441,555.067988293,None,554.4676043820001,554.884628889,555.684610488,556.185018771,555.684610488,None,0,0,20,None,None,1,001,exponential,rgby,0.75-0.35,2021_May_17_1100,color_judgement_and_subjective_perception,2020.2.10,60.05314222661089,
3,0.75,testing,1000,1,,,,,,,,,0,0,0,0,,,,,0,3,3,3,556.7850804180001,None,k,0.7733051299999261,556.8851611430001,None,556.2848690550001,556.7018435880001,557.6849201179999,558.185350114,557.6849201179999,None,57,57,0,None,None,1,001,exponential,rgby,0.75-0.35,2021_May_17_1100,color_judgement_and_subjective_perception,2020.2.10,60.05314222661089,
2,0.75,testing,1000,1,,,,,,,,,0,0,0,0,,,,,1,0,4,2,558.785400139,None,j,0.6531143649999649,558.8853595439999,None,558.2850740529999,558.7020785020001,559.5694690040001,560.069519685,559.5694690040001,None,0,0,17,None,None,1,001,exponential,rgby,0.75-0.35,2021_May_17_1100,color_judgement_and_subjective_perception,2020.2.10,60.05314222661089,
3,0.75,testing,1000,1,,,,,,,,,0,0,0,0,,,,,1,1,5,3,560.6697692870001,None,f,0.3366738299998815,560.769766235,None,560.169443206,560.5863256690001,561.1377201250001,561.636672683,561.1377201250001,None,56,56,0,None,None,1,001,exponential,rgby,0.75-0.35,2021_May_17_1100,color_judgement_and_subjective_perception,2020.2.10,60.05314222661089,
2,0.75,testing,1000,1,,,,,,,,,0,0,0,0,,,,,1,2,6,2,562.2365820399999,None,None,-1,562.3367949300001,None,561.7362702859999,562.153447602,563.2538417100001,563.7536188140001,563.2538417100001,None,0,0,16,None,None,1,001,exponential,rgby,0.75-0.35,2021_May_17_1100,color_judgement_and_subjective_perception,2020.2.10,60.05314222661089,
2,0.75,testing,1000,1,,,,,,,,,0,0,0,0,,,,,1,3,7,2,564.3379547870001,None,j,0.8604815820001477,564.4378921900001,None,563.8533841479999,564.254416135,565.322702883,565.8213891880001,565.322702883,None,0,0,18,None,None,1,001,exponential,rgby,0.75-0.35,2021_May_17_1100,color_judgement_and_subjective_perception,2020.2.10,60.05314222661089,
3,0.75,testing,1000,1,,,,,,,,,0,0,0,0,,,,,2,0,8,3,566.421512727,None,k,0.8728387620001286,566.5216106880001,None,565.9211004089999,566.338073067,567.421447501,567.9216641300001,567.421447501,None,60,60,0,None,None,1,001,exponential,rgby,0.75-0.35,2021_May_17_1100,color_judgement_and_subjective_perception,2020.2.10,60.05314222661089,
2,0.75,testing,1000,1,,,,,,,,,0,0,0,0,,,,,2,1,9,2,568.5216749279999,None,j,0.5486432850000256,568.621824683,None,568.021433456,568.4384012280001,569.1891978330001,569.6895992030001,569.1891978330001,None,0,0,19,None,None,1,001,exponential,rgby,0.75-0.35,2021_May_17_1100,color_judgement_and_subjective_perception,2020.2.10,60.05314222661089,
2,0.75,testing,1000,1,,,,,,,,,0,0,0,0,,,,,2,2,10,2,570.289572987,None,j,0.852936858000021,570.389520547,None,569.789383449,570.2061272889999,571.2730158610001,571.7731439539999,571.2730158610001,None,0,0,17,None,None,1,001,exponential,rgby,0.75-0.35,2021_May_17_1100,color_judgement_and_subjective_perception,2020.2.10,60.05314222661089,
1,0.75,testing,1000,1,,,,,,,,,0,0,0,0,,,,,2,3,11,1,572.373216479,None,f,0.6333257069998126,572.473157557,None,571.8730382919999,572.289934927,573.1233421539999,573.623469327,573.1233421539999,None,0,42,0,None,None,1,001,exponential,rgby,0.75-0.35,2021_May_17_1100,color_judgement_and_subjective_perception,2020.2.10,60.05314222661089,
0,0.75,testing,1000,1,,,,,,,,,0,0,0,0,,,,,3,0,12,0,574.207696839,None,d,0.894787727999983,574.307679767,None,573.723156976,574.1242107009999,575.2257434300001,575.7243886729999,575.2257434300001,None,17,6,0,None,None,1,001,exponential,rgby,0.75-0.35,2021_May_17_1100,color_judgement_and_subjective_perception,2020.2.10,60.05314222661089,
2,0.75,testing,1000,1,,,,,,,,,0,0,0,0,,,,,3,1,13,2,576.324682483,None,j,0.4259333019999758,576.424526446,None,575.8242915490001,576.241130964,576.8761211489999,577.3747122450001,576.8761211489999,None,0,0,13,None,None,1,001,exponential,rgby,0.75-0.35,2021_May_17_1100,color_judgement_and_subjective_perception,2020.2.10,60.05314222661089,
1,0.75,testing,1000,1,,,,,,,,,0,0,0,0,,,,,3,2,14,1,577.9748063390001,None,f,0.7834016150000025,578.074975095,None,577.4745281869999,577.8913933120001,578.8915118799999,579.375881609,578.8915118799999,None,0,38,0,None,None,1,001,exponential,rgby,0.75-0.35,2021_May_17_1100,color_judgement_and_subjective_perception,2020.2.10,60.05314222661089,
1,0.75,testing,1000,1,,,,,,,,,0,0,0,0,,,,,3,3,15,1,579.97594016,None,j,0.742457012000159,580.075969741,None,579.47567008,579.8924422819999,580.8442333930001,581.3429289700001,580.8442333930001,None,0,36,0,None,None,1,001,exponential,rgby,0.75-0.35,2021_May_17_1100,color_judgement_and_subjective_perception,2020.2.10,60.05314222661089,
0,0.75,testing,1000,1,,,,,,,,,0,0,0,0,,,,,4,0,16,0,581.9430462189999,None,None,-1,582.0429782760001,None,581.442738203,581.859596268,582.960234173,583.4597274240001,582.960234173,None,14,5,0,None,None,1,001,exponential,rgby,0.75-0.35,2021_May_17_1100,color_judgement_and_subjective_perception,2020.2.10,60.05314222661089,
1,0.75,testing,1000,1,,,,,,,,,0,0,0,0,,,,,4,1,17,1,584.0597599870001,None,f,0.6981898670001101,584.1442886620001,None,583.5596316499999,583.9765343770001,584.862415894,585.3609709210001,584.862415894,None,0,39,0,None,None,1,001,exponential,rgby,0.75-0.35,2021_May_17_1100,color_judgement_and_subjective_perception,2020.2.10,60.05314222661089,
2,0.75,testing,1000,1,,,,,,,,,0,0,0,0,,,,,4,2,18,2,585.960933534,None,j,0.6053015079999113,586.0611355499999,None,585.4607765480001,585.877724287,586.694366869,587.1947477499999,586.694366869,None,0,0,13,None,None,1,001,exponential,rgby,0.75-0.35,2021_May_17_1100,color_judgement_and_subjective_perception,2020.2.10,60.05314222661089,
2,0.75,testing,1000,1,,,,,,,,,0,0,0,0,,,,,4,3,19,2,587.7946572930001,None,d,0.49183887700019113,587.894639841,None,587.2943931840001,587.7114552720001,588.412763121,588.911590991,588.412763121,None,0,0,13,None,None,1,001,exponential,rgby,0.75-0.35,2021_May_17_1100,color_judgement_and_subjective_perception,2020.2.10,60.05314222661089,
2,0.75,testing,1000,1,,,,,,,,,0,0,0,0,,,,,5,0,20,2,589.49581645,None,j,0.63866974199982,589.595813042,None,589.011326923,589.41239979,590.2635732530001,590.7626601180001,590.2635732530001,None,0,0,15,None,None,1,001,exponential,rgby,0.75-0.35,2021_May_17_1100,color_judgement_and_subjective_perception,2020.2.10,60.05314222661089,
1,0.75,testing,1000,1,,,,,,,,,0,0,0,0,,,,,5,1,21,1,591.362690825,None,f,0.5796345960000053,591.4628459659999,None,590.8624449570001,591.2793232800001,592.062777878,592.5628292110001,592.062777878,None,0,44,0,None,None,1,001,exponential,rgby,0.75-0.35,2021_May_17_1100,color_judgement_and_subjective_perception,2020.2.10,60.05314222661089,
3,0.75,testing,1000,1,,,,,,,,,0,0,0,0,,,,,5,2,22,3,593.1629445730001,None,k,0.5875068579998697,593.26294552,None,592.662691845,593.0797125340001,593.8795460370001,594.36405138,593.8795460370001,None,61,61,0,None,None,1,001,exponential,rgby,0.75-0.35,2021_May_17_1100,color_judgement_and_subjective_perception,2020.2.10,60.05314222661089,
3,0.75,testing,1000,1,,,,,,,,,0,0,0,0,,,,,5,3,23,3,594.9641314950001,None,k,0.5465418020000925,595.063930138,None,594.4638796810001,594.8809273119999,595.630619187,596.1309162460001,595.630619187,None,61,61,0,None,None,1,001,exponential,rgby,0.75-0.35,2021_May_17_1100,color_judgement_and_subjective_perception,2020.2.10,60.05314222661089,
0,0.75,testing,1000,1,,,,,,,,,0,0,0,0,,,,,6,0,24,0,596.731143289,None,j,0.6833683370000472,596.8310774539999,None,596.230825128,596.647768999,597.5333550209999,598.0312334670001,597.5333550209999,None,17,6,0,None,None,1,001,exponential,rgby,0.75-0.35,2021_May_17_1100,color_judgement_and_subjective_perception,2020.2.10,60.05314222661089,
3,0.75,testing,1000,1,,,,,,,,,0,0,0,0,,,,,6,1,25,3,598.631476545,None,f,0.687116221999986,598.731347029,None,598.1309179430001,598.5478877260001,599.448832556,599.9492324510001,599.448832556,None,60,60,0,None,None,1,001,exponential,rgby,0.75-0.35,2021_May_17_1100,color_judgement_and_subjective_perception,2020.2.10,60.05314222661089,
1,0.75,testing,1000,1,,,,,,,,,0,0,0,0,,,,,6,2,26,1,600.548925549,None,f,0.6653738600000452,600.649112791,None,600.0488988359999,600.4656141470001,601.3340872489999,601.8326203770001,601.3340872489999,None,0,42,0,None,None,1,001,exponential,rgby,0.75-0.35,2021_May_17_1100,color_judgement_and_subjective_perception,2020.2.10,60.05314222661089,
1,0.75,testing,1000,1,,,,,,,,,0,0,0,0,,,,,6,3,27,1,602.432588646,None,f,0.5658858689998851,602.532576619,None,601.93240662,602.349478861,603.1159317810001,603.6161760589999,603.1159317810001,None,0,42,0,None,None,1,001,exponential,rgby,0.75-0.35,2021_May_17_1100,color_judgement_and_subjective_perception,2020.2.10,60.05314222661089,
0,0.75,testing,1000,1,,,,,,,,,0,0,0,0,,,,,7,0,28,0,604.2004987670001,None,d,0.5338659110000208,604.300486965,None,603.7160724920001,604.1174694980001,604.866946733,605.367437922,604.866946733,None,22,7,0,None,None,1,001,exponential,rgby,0.75-0.35,2021_May_17_1100,color_judgement_and_subjective_perception,2020.2.10,60.05314222661089,
3,0.75,testing,1000,1,,,,,,,,,0,0,0,0,,,,,7,1,29,3,605.967441187,None,k,0.7590816559998075,606.0673730499999,None,605.4671180250001,605.8840084249999,606.8507869210001,607.350899228,606.8507869210001,None,63,63,0,None,None,1,001,exponential,rgby,0.75-0.35,2021_May_17_1100,color_judgement_and_subjective_perception,2020.2.10,60.05314222661089,
1,0.75,testing,1000,1,,,,,,,,,0,0,0,0,,,,,7,2,30,1,607.9510489590001,None,f,0.607312704999913,608.0511525349999,None,607.450755795,607.8675838529999,608.6843081369999,609.168838894,608.6843081369999,None,0,40,0,None,None,1,001,exponential,rgby,0.75-0.35,2021_May_17_1100,color_judgement_and_subjective_perception,2020.2.10,60.05314222661089,
3,0.75,testing,1000,1,,,,,,,,,0,0,0,0,,,,,7,3,31,3,609.768850472,None,k,0.5334838090000176,609.8688835680001,None,609.2685249780001,609.685548063,610.4353001410001,610.9357349559999,610.4353001410001,None,62,62,0,None,None,1,001,exponential,rgby,0.75-0.35,2021_May_17_1100,color_judgement_and_subjective_perception,2020.2.10,60.05314222661089,
2,0.75,testing,1000,1,,,,,,,,,0,0,0,0,,,,,8,0,32,2,611.5358927870001,None,j,0.6225803980000819,611.6358610579999,None,611.035512437,611.4524746170001,612.285725977,612.7857768800001,612.285725977,None,0,0,12,None,None,1,001,exponential,rgby,0.75-0.35,2021_May_17_1100,color_judgement_and_subjective_perception,2020.2.10,60.05314222661089,
1,0.75,testing,1000,1,,,,,,,,,0,0,0,0,,,,,8,1,33,1,613.3859815049999,None,f,0.7644027250000818,613.486086067,None,612.8858013170001,613.302646021,614.270027749,614.770370757,614.270027749,None,0,36,0,None,None,1,001,exponential,rgby,0.75-0.35,2021_May_17_1100,color_judgement_and_subjective_perception,2020.2.10,60.05314222661089,
3,0.75,testing,1000,1,,,,,,,,,0,0,0,0,,,,,8,2,34,3,615.370407236,None,k,0.4840526749999299,615.4703459589999,None,614.870051539,615.2870278460001,615.987119949,616.4872867340001,615.987119949,None,58,58,0,None,None,1,001,exponential,rgby,0.75-0.35,2021_May_17_1100,color_judgement_and_subjective_perception,2020.2.10,60.05314222661089,
0,0.75,testing,1000,1,,,,,,,,,0,0,0,0,,,,,8,3,35,0,617.0875254230001,None,j,0.7189726930000688,617.1875040880001,None,616.5869291780001,617.0040788330001,617.9389767030001,618.4375363390001,617.9389767030001,None,16,5,0,None,None,1,001,exponential,rgby,0.75-0.35,2021_May_17_1100,color_judgement_and_subjective_perception,2020.2.10,60.05314222661089,
3,0.75,testing,1000,1,,,,,,,,,0,0,0,0,,,,,9,0,36,3,619.037789722,None,None,-1,619.1224047449999,None,618.537395988,618.954242011,620.0391788420001,620.538653206,620.0391788420001,None,57,57,0,None,None,1,001,exponential,rgby,0.75-0.35,2021_May_17_1100,color_judgement_and_subjective_perception,2020.2.10,60.05314222661089,
0,0.75,testing,1000,1,,,,,,,,,0,0,0,0,,,,,9,1,37,0,621.1388676319999,None,j,0.7795841670001664,621.2388881549999,None,620.6384135740001,621.0554325940001,622.040228858,622.539100933,622.040228858,None,19,6,0,None,None,1,001,exponential,rgby,0.75-0.35,2021_May_17_1100,color_judgement_and_subjective_perception,2020.2.10,60.05314222661089,
1,0.75,testing,1000,1,,,,,,,,,0,0,0,0,,,,,9,2,38,1,623.1392521700001,None,f,0.6832309399999303,623.239212008,None,622.6388374090001,623.0557757130001,623.941171688,624.423621776,623.941171688,None,0,36,0,None,None,1,001,exponential,rgby,0.75-0.35,2021_May_17_1100,color_judgement_and_subjective_perception,2020.2.10,60.05314222661089,
3,0.75,testing,1000,1,,,,,,,,,0,0,0,0,,,,,9,3,39,3,625.0236120569999,None,k,0.8229095379999762,625.1235431910001,None,624.5233378470001,624.940275262,625.9736121320001,626.4739386299999,625.9736121320001,None,61,61,0,None,None,1,001,exponential,rgby,0.75-0.35,2021_May_17_1100,color_judgement_and_subjective_perception,2020.2.10,60.05314222661089,
1,0.75,testing,1000,1,,,,,,,,,0,0,0,0,,,,,10,0,40,1,627.073952627,None,j,0.7324099259999457,627.174025981,None,626.573604476,626.9907123209999,627.9257459270001,628.424039869,627.9257459270001,None,0,37,0,None,None,1,001,exponential,rgby,0.75-0.35,2021_May_17_1100,color_judgement_and_subjective_perception,2020.2.10,60.05314222661089,
1,0.75,testing,1000,1,,,,,,,,,0,0,0,0,,,,,10,1,41,1,629.024303044,None,f,0.742890387999978,629.115582792,None,628.523889743,628.9409465289999,629.877198431,630.3751499440001,629.877198431,None,0,39,0,None,None,1,001,exponential,rgby,0.75-0.35,2021_May_17_1100,color_judgement_and_subjective_perception,2020.2.10,60.05314222661089,
2,0.75,testing,1000,1,,,,,,,,,0,0,0,0,,,,,10,2,42,2,630.975262674,None,j,0.6949755710002137,631.075474912,None,630.475060786,630.891993976,631.792145966,632.292140701,631.792145966,None,0,0,15,None,None,1,001,exponential,rgby,0.75-0.35,2021_May_17_1100,color_judgement_and_subjective_perception,2020.2.10,60.05314222661089,
1,0.75,testing,1000,1,,,,,,,,,0,0,0,0,,,,,10,3,43,1,632.8922322699999,None,f,0.6499999370000751,632.992316508,None,632.392045359,632.8089483059999,633.675585521,634.1599905070001,633.675585521,None,0,40,0,None,None,1,001,exponential,rgby,0.75-0.35,2021_May_17_1100,color_judgement_and_subjective_perception,2020.2.10,60.05314222661089,
0,0.75,testing,1000,1,,,,,,,,,0,0,0,0,,,,,11,0,44,0,634.7599592170001,None,d,0.6383703910000804,634.860069706,None,634.2598384040001,634.6767876550001,635.526606305,636.0268813639999,635.526606305,None,25,8,0,None,None,1,001,exponential,rgby,0.75-0.35,2021_May_17_1100,color_judgement_and_subjective_perception,2020.2.10,60.05314222661089,
1,0.75,testing,1000,1,,,,,,,,,0,0,0,0,,,,,11,1,45,1,636.6271714569999,None,f,0.7153795430001537,636.7270901370001,None,636.1267577719999,636.5437769060001,637.460364896,637.9605196880001,637.460364896,None,0,37,0,None,None,1,001,exponential,rgby,0.75-0.35,2021_May_17_1100,color_judgement_and_subjective_perception,2020.2.10,60.05314222661089,
2,0.75,testing,1000,1,,,,,,,,,0,0,0,0,,,,,11,2,46,2,638.560610462,None,d,0.6297436449999623,638.6606491250001,None,638.0603500799999,638.4773091999999,639.3127823870001,639.81155181,639.3127823870001,None,0,0,12,None,None,1,001,exponential,rgby,0.75-0.35,2021_May_17_1100,color_judgement_and_subjective_perception,2020.2.10,60.05314222661089,
2,0.75,testing,1000,1,,,,,,,,,0,0,0,0,,,,,11,3,47,2,640.411591792,None,j,0.6107411919999777,640.511628097,None,639.9114442450001,640.328345196,641.1464250580001,641.645386951,641.1464250580001,None,0,0,14,None,None,1,001,exponential,rgby,0.75-0.35,2021_May_17_1100,color_judgement_and_subjective_perception,2020.2.10,60.05314222661089,
1,0.75,testing,1000,1,,,,,,,,,0,0,0,0,,,,,12,0,48,1,642.2454530450001,None,j,0.7929499039998973,642.3455049380001,None,641.745220746,642.161930888,643.1637912980001,643.662254875,643.1637912980001,None,0,37,0,None,None,1,001,exponential,rgby,0.75-0.35,2021_May_17_1100,color_judgement_and_subjective_perception,2020.2.10,60.05314222661089,
3,0.75,testing,1000,1,,,,,,,,,0,0,0,0,,,,,12,1,49,3,644.2465816970001,None,k,0.5119298800000252,644.3465452009999,None,643.762111221,644.163218106,644.881098151,645.379805595,644.881098151,None,66,66,0,None,None,1,001,exponential,rgby,0.75-0.35,2021_May_17_1100,color_judgement_and_subjective_perception,2020.2.10,60.05314222661089,
1,0.75,testing,1000,1,,,,,,,,,0,0,0,0,,,,,12,2,50,1,645.9801200969999,None,f,0.6742709320001268,646.080201832,None,645.479750286,645.896830693,646.7800660260001,647.2805321290001,646.7800660260001,None,0,40,0,None,None,1,001,exponential,rgby,0.75-0.35,2021_May_17_1100,color_judgement_and_subjective_perception,2020.2.10,60.05314222661089,
1,0.75,testing,1000,1,,,,,,,,,0,0,0,0,,,,,12,3,51,1,647.880389429,None,f,0.7979519049999908,647.980503079,None,647.380114707,647.797053696,648.797027765,649.281541962,648.797027765,None,0,40,0,None,None,1,001,exponential,rgby,0.75-0.35,2021_May_17_1100,color_judgement_and_subjective_perception,2020.2.10,60.05314222661089,
2,0.75,testing,1000,1,,,,,,,,,0,0,0,0,,,,,13,0,52,2,649.8816510820001,None,d,0.7409417700000631,649.981532743,None,649.3812607149999,649.7981065820001,650.7494986350001,651.2483627160001,650.7494986350001,None,0,0,16,None,None,1,001,exponential,rgby,0.75-0.35,2021_May_17_1100,color_judgement_and_subjective_perception,2020.2.10,60.05314222661089,
3,0.75,testing,1000,1,,,,,,,,,0,0,0,0,,,,,13,1,53,3,651.848544904,None,k,0.5578087760000017,651.948664999,None,651.348190537,651.7651016450001,652.533189435,653.031987336,652.533189435,None,65,65,0,None,None,1,001,exponential,rgby,0.75-0.35,2021_May_17_1100,color_judgement_and_subjective_perception,2020.2.10,60.05314222661089,
1,0.75,testing,1000,1,,,,,,,,,0,0,0,0,,,,,13,2,54,1,653.6320541010001,None,j,0.5744064279999748,653.732073558,None,653.131694201,653.5488900270001,654.3345644750001,654.833164364,654.3345644750001,None,0,40,0,None,None,1,001,exponential,rgby,0.75-0.35,2021_May_17_1100,color_judgement_and_subjective_perception,2020.2.10,60.05314222661089,
3,0.75,testing,1000,1,,,,,,,,,0,0,0,0,,,,,13,3,55,3,655.4331483950001,None,k,0.6852765910000471,655.5331682520001,None,654.9327873020001,655.349898071,656.2512771570001,656.733571093,656.2512771570001,None,66,66,0,None,None,1,001,exponential,rgby,0.75-0.35,2021_May_17_1100,color_judgement_and_subjective_perception,2020.2.10,60.05314222661089,
0,0.75,testing,1000,1,,,,,,,,,0,0,0,0,,,,,14,0,56,0,657.3335534900001,None,None,-1,657.432332236,None,656.8333189450001,657.248917427,657.9910226579999,658.433706848,657.9910226579999,None,30,10,0,None,None,1,001,exponential,rgby,0.75-0.35,2021_May_17_1100,color_judgement_and_subjective_perception,2020.2.10,60.05314222661089,
0,0.75,testing,1000,1,,,,,,,,,0,0,0,0,,,,,14,1,57,0,659.033804823,None,d,0.35737694499994177,659.125058015,None,658.5334808220001,658.95044718,659.502449423,660.0013894100001,659.502449423,None,32,11,0,None,None,1,001,exponential,rgby,0.75-0.35,2021_May_17_1100,color_judgement_and_subjective_perception,2020.2.10,60.05314222661089,
0,0.75,testing,1000,1,,,,,,,,,0,0,0,0,,,,,14,2,58,0,660.601340711,None,d,0.5489441570000508,660.7015185700001,None,660.101120763,660.5181429150001,661.2681364050001,661.7684184789999,661.2681364050001,None,34,11,0,None,None,1,001,exponential,rgby,0.75-0.35,2021_May_17_1100,color_judgement_and_subjective_perception,2020.2.10,60.05314222661089,
0,0.75,testing,1000,1,,,,,,,,,0,0,0,0,,,,,14,3,59,0,662.368471393,None,d,0.5101240170001802,662.468325012,None,661.8681848330001,662.285114662,663.001675118,663.5018676210001,663.001675118,None,36,12,0,None,None,1,001,exponential,rgby,0.75-0.35,2021_May_17_1100,color_judgement_and_subjective_perception,2020.2.10,60.05314222661089,
2,0.75,testing,1000,1,,,,,,,,,0,0,0,0,,,,,15,0,60,2,664.101900667,None,j,0.6083530500000052,664.1861302660001,None,663.601593381,664.0185592460001,664.819437556,665.319541473,664.819437556,None,0,0,23,None,None,1,001,exponential,rgby,0.75-0.35,2021_May_17_1100,color_judgement_and_subjective_perception,2020.2.10,60.05314222661089,
1,0.75,testing,1000,1,,,,,,,,,0,0,0,0,,,,,15,1,61,1,665.919672997,None,f,0.5668124009998792,666.0196651960001,None,665.4195361779999,665.83630835,666.6034817389999,667.1033985180001,666.6034817389999,None,0,44,0,None,None,1,001,exponential,rgby,0.75-0.35,2021_May_17_1100,color_judgement_and_subjective_perception,2020.2.10,60.05314222661089,
1,0.75,testing,1000,1,,,,,,,,,0,0,0,0,,,,,15,2,62,1,667.7034019629999,None,f,0.535015883999904,667.8034536819999,None,667.2031739079999,667.619926773,668.369932171,668.870235559,668.369932171,None,0,44,0,None,None,1,001,exponential,rgby,0.75-0.35,2021_May_17_1100,color_judgement_and_subjective_perception,2020.2.10,60.05314222661089,
1,0.75,testing,1000,1,,,,,,,,,0,0,0,0,,,,,15,3,63,1,669.454400594,None,f,0.41603836500007674,669.554408203,None,668.969858264,669.3712285519999,669.987743817,670.4878413370001,669.987743817,None,0,42,0,None,None,1,001,exponential,rgby,0.75-0.35,2021_May_17_1100,color_judgement_and_subjective_perception,2020.2.10,60.05314222661089,
1,0.75,testing,1000,1,,,,,,,,,0,0,0,0,,,,,16,0,64,1,671.0879353670001,None,f,0.43849666000005527,671.187972182,None,670.587657533,671.004740776,671.6547168559999,672.154965717,671.6547168559999,None,0,40,0,None,None,1,001,exponential,rgby,0.75-0.35,2021_May_17_1100,color_judgement_and_subjective_perception,2020.2.10,60.05314222661089,
0,0.75,testing,1000,1,,,,,,,,,0,0,0,0,,,,,16,1,65,0,672.754908045,None,d,0.5795655599999918,672.854910122,None,672.254821824,672.6715668790001,673.4548353209999,673.955226592,673.4548353209999,None,29,10,0,None,None,1,001,exponential,rgby,0.75-0.35,2021_May_17_1100,color_judgement_and_subjective_perception,2020.2.10,60.05314222661089,
0,0.75,testing,1000,1,,,,,,,,,0,0,0,0,,,,,16,2,66,0,674.539364659,None,j,0.5872359620000225,674.639216183,None,674.0549368850001,674.456102427,675.2575119940001,675.756299899,675.2575119940001,None,27,9,0,None,None,1,001,exponential,rgby,0.75-0.35,2021_May_17_1100,color_judgement_and_subjective_perception,2020.2.10,60.05314222661089,
1,0.75,testing,1000,1,,,,,,,,,0,0,0,0,,,,,16,3,67,1,676.3563641229999,None,f,0.6981527689999893,676.4563080250001,None,675.856006825,676.272859415,677.1746883469999,677.6731996750001,677.1746883469999,None,0,38,0,None,None,1,001,exponential,rgby,0.75-0.35,2021_May_17_1100,color_judgement_and_subjective_perception,2020.2.10,60.05314222661089,
1,0.75,testing,1000,1,,,,,,,,,0,0,0,0,,,,,17,0,68,1,678.2733265170001,None,f,0.6293485599999258,678.3731227879999,None,677.772817232,678.189898301,679.0231694759999,679.507801763,679.0231694759999,None,0,36,0,None,None,1,001,exponential,rgby,0.75-0.35,2021_May_17_1100,color_judgement_and_subjective_perception,2020.2.10,60.05314222661089,
2,0.75,testing,1000,1,,,,,,,,,0,0,0,0,,,,,17,1,69,2,680.107709626,None,f,0.48286677600003713,680.2075662599999,None,679.6074416170001,680.024374834,680.7094761740001,681.20792236,680.7094761740001,None,0,0,17,None,None,1,001,exponential,rgby,0.75-0.35,2021_May_17_1100,color_judgement_and_subjective_perception,2020.2.10,60.05314222661089,
1,0.75,testing,1000,1,,,,,,,,,0,0,0,0,,,,,17,2,70,1,681.8079235260001,None,j,0.6704037449999305,681.908040682,None,681.3077264080001,681.724642019,682.6078917660001,683.108221935,682.6078917660001,None,0,35,0,None,None,1,001,exponential,rgby,0.75-0.35,2021_May_17_1100,color_judgement_and_subjective_perception,2020.2.10,60.05314222661089,
3,0.75,testing,1000,1,,,,,,,,,0,0,0,0,,,,,17,3,71,3,683.708268,None,None,-1,683.8083939040001,None,683.20804523,683.62496099,684.709573664,685.2094659129999,684.709573664,None,63,63,0,None,None,1,001,exponential,rgby,0.75-0.35,2021_May_17_1100,color_judgement_and_subjective_perception,2020.2.10,60.05314222661089,
