color_idx_ind,target_acc,mode,response_deadline,block_number,trials_training.thisRepN,trials_training.thisTrialN,trials_training.thisN,trials_training.thisIndex,trials_training_deadline.thisRepN,trials_training_deadline.thisTrialN,trials_training_deadline.thisN,trials_training_deadline.thisIndex,blocks.thisRepN,blocks.thisTrialN,blocks.thisN,blocks.thisIndex,trials_staircase.thisRepN,trials_staircase.thisTrialN,trials_staircase.thisN,trials_staircase.thisIndex,trials.thisRepN,trials.thisTrialN,trials.thisN,trials.thisIndex,stimulus_ind.started,stimulus_ind.stopped,key_resp_ind.keys,key_resp_ind.rt,key_resp_ind.started,key_resp_ind.stopped,fixation_cross_1_ind.started,fixation_cross_1_ind.stopped,text.started,text.stopped,dummy_text.started,dummy_text.stopped,stim_ind_color_rgb_r,stim_ind_color_rgb_g,stim_ind_color_rgb_b,text_break_block.started,text_break_block.stopped,participant,session,accuracy_weighting,color_mapping,block_difficulties,date,expName,psychopyVersion,frameRate,
0,0.9,training,1000000000000,,0,0,0,0,,,,,,,,,,,,,,,,,66.08787427800053,None,d,3.164617566999368,66.18788451399996,None,65.59078834600041,66.00441204700019,69.37449737099996,69.87267361200065,69.37449737099996,None,,,,,,2,001,exponential,rgby,0.35-0.75,2021_May_17_1305,color_judgement_and_subjective_perception,2020.2.10,59.92403681561325,
3,0.9,training,1000000000000,,0,1,1,1,,,,,,,,,,,,,,,,,70.47274780600037,None,k,0.8757121569997253,70.57277972200063,None,69.97269187000074,70.38941028700083,71.47264458200061,71.97307086700039,71.47264458200061,None,,,,,,2,001,exponential,rgby,0.35-0.75,2021_May_17_1305,color_judgement_and_subjective_perception,2020.2.10,59.92403681561325,
1,0.9,training,1000000000000,,0,2,2,2,,,,,,,,,,,,,,,,,72.57316181200076,None,f,0.9191850990000603,72.65732321800078,None,72.07283510600064,72.4896567170008,73.60717339100029,74.10738774900074,73.60717339100029,None,,,,,,2,001,exponential,rgby,0.35-0.75,2021_May_17_1305,color_judgement_and_subjective_perception,2020.2.10,59.92403681561325,
0,0.9,training,1000000000000,,0,3,3,3,,,,,,,,,,,,,,,,,74.70760200500081,None,d,0.7048736509996161,74.80764768300014,None,74.20724324399998,74.62402716300039,75.54080251200048,76.04124335699998,75.54080251200048,None,,,,,,2,001,exponential,rgby,0.35-0.75,2021_May_17_1305,color_judgement_and_subjective_perception,2020.2.10,59.92403681561325,
1,0.9,training,1000000000000,,0,4,4,4,,,,,,,,,,,,,,,,,76.64125729400075,None,f,1.211251615999572,76.7412385030002,None,76.14107596200029,76.55770856800063,77.97546091000004,78.47568591800064,77.97546091000004,None,,,,,,2,001,exponential,rgby,0.35-0.75,2021_May_17_1305,color_judgement_and_subjective_perception,2020.2.10,59.92403681561325,
2,0.9,training,1000000000000,,0,5,5,5,,,,,,,,,,,,,,,,,79.0757419950005,None,j,0.5767540490005558,79.17570051800067,None,78.57555815200067,78.99234019200048,79.77566731000024,80.27593734000038,79.77566731000024,None,,,,,,2,001,exponential,rgby,0.35-0.75,2021_May_17_1305,color_judgement_and_subjective_perception,2020.2.10,59.92403681561325,
0,0.9,training,1000000000000,,0,6,6,6,,,,,,,,,,,,,,,,,80.87598729700039,None,d,0.8004847990005146,80.9759426390001,None,80.37581842100008,80.79258287600078,81.80940701100008,82.30958899600046,81.80940701100008,None,,,,,,2,001,exponential,rgby,0.35-0.75,2021_May_17_1305,color_judgement_and_subjective_perception,2020.2.10,59.92403681561325,
3,0.9,training,1000000000000,,0,7,7,7,,,,,,,,,,,,,,,,,82.89386952400037,None,k,0.7427315969998745,82.99377258500044,None,82.40948024900081,82.8104997570008,83.76031449100083,84.26077660200008,83.76031449100083,None,,,,,,2,001,exponential,rgby,0.35-0.75,2021_May_17_1305,color_judgement_and_subjective_perception,2020.2.10,59.92403681561325,
1,0.9,training,1000000000000,,0,8,8,8,,,,,,,,,,,,,,,,,84.86080713299998,None,f,0.4477119989996936,84.96078765900074,None,84.3605260180002,84.7774163690001,85.42739853300009,85.92750734900073,85.42739853300009,None,,,,,,2,001,exponential,rgby,0.35-0.75,2021_May_17_1305,color_judgement_and_subjective_perception,2020.2.10,59.92403681561325,
2,0.9,training,1000000000000,,0,9,9,9,,,,,,,,,,,,,,,,,86.5277433830006,None,j,0.35685627200018644,86.62766285900034,None,86.02759227700062,86.44419979900067,87.01089918300022,87.51100883500021,87.01089918300022,None,,,,,,2,001,exponential,rgby,0.35-0.75,2021_May_17_1305,color_judgement_and_subjective_perception,2020.2.10,59.92403681561325,
3,0.9,training,1000000000000,,0,10,10,10,,,,,,,,,,,,,,,,,88.0955164320003,None,k,1.5412059009995573,88.19530010800008,None,87.61088658900007,88.01216590100012,89.76225277400044,90.26238408400059,89.76225277400044,None,,,,,,2,001,exponential,rgby,0.35-0.75,2021_May_17_1305,color_judgement_and_subjective_perception,2020.2.10,59.92403681561325,
2,0.9,training,1000000000000,,0,11,11,11,,,,,,,,,,,,,,,,,90.86239567800021,None,j,0.5820139630004633,90.96240337000017,None,90.36240980000002,90.77927997300048,91.56231740600015,92.06264887900034,91.56231740600015,None,,,,,,2,001,exponential,rgby,0.35-0.75,2021_May_17_1305,color_judgement_and_subjective_perception,2020.2.10,59.92403681561325,
3,0.9,training,1000000000000,,0,12,12,12,,,,,,,,,,,,,,,,,92.6474329800003,None,k,0.7414021380000122,92.74708425800054,None,92.16280796000046,92.57935810600065,93.5136764810004,94.01383505300055,93.5136764810004,None,,,,,,2,001,exponential,rgby,0.35-0.75,2021_May_17_1305,color_judgement_and_subjective_perception,2020.2.10,59.92403681561325,
2,0.9,training,1000000000000,,0,13,13,13,,,,,,,,,,,,,,,,,94.6138688230003,None,j,0.39864161100013007,94.71384624700022,None,94.1136204480008,94.5305133920001,95.13055227400037,95.63067576200046,95.13055227400037,None,,,,,,2,001,exponential,rgby,0.35-0.75,2021_May_17_1305,color_judgement_and_subjective_perception,2020.2.10,59.92403681561325,
0,0.9,training,1000000000000,,0,14,14,14,,,,,,,,,,,,,,,,,96.23067551700024,None,d,0.7177810809998846,96.33072093900046,None,95.73066621100043,96.14747103900027,97.08080332300051,97.58093782200012,97.08080332300051,None,,,,,,2,001,exponential,rgby,0.35-0.75,2021_May_17_1305,color_judgement_and_subjective_perception,2020.2.10,59.92403681561325,
1,0.9,training,1000000000000,,0,15,15,15,,,,,,,,,,,,,,,,,98.16525359800016,None,f,0.35909059699952195,98.26541673300017,None,97.66519144400081,98.08170284000062,98.64848161400005,99.14866082200024,98.64848161400005,None,,,,,,2,001,exponential,rgby,0.35-0.75,2021_May_17_1305,color_judgement_and_subjective_perception,2020.2.10,59.92403681561325,
0,0.9,training,1000000000000,,0,16,16,16,,,,,,,,,,,,,,,,,99.74878449800053,None,d,1.1516592110001511,99.84882176600058,None,99.24857244900068,99.66555497600075,101.03212439000072,101.53245093900023,101.03212439000072,None,,,,,,2,001,exponential,rgby,0.35-0.75,2021_May_17_1305,color_judgement_and_subjective_perception,2020.2.10,59.92403681561325,
1,0.9,training,1000000000000,,0,17,17,17,,,,,,,,,,,,,,,,,102.13266613400083,None,f,0.46396188600010646,102.23256112000036,None,101.63232438000068,102.04923361000056,102.71676930100057,103.21676089200082,102.71676930100057,None,,,,,,2,001,exponential,rgby,0.35-0.75,2021_May_17_1305,color_judgement_and_subjective_perception,2020.2.10,59.92403681561325,
0,0.9,training,1000000000000,,0,18,18,18,,,,,,,,,,,,,,,,,103.81686645100035,None,d,0.6835379900003318,103.91692033000072,None,103.316727679,103.73367107500053,104.63360618000024,105.13391865500034,104.63360618000024,None,,,,,,2,001,exponential,rgby,0.35-0.75,2021_May_17_1305,color_judgement_and_subjective_perception,2020.2.10,59.92403681561325,
2,0.9,training,1000000000000,,0,19,19,19,,,,,,,,,,,,,,,,,105.73394233800082,None,j,0.598611147000156,105.83380562900038,None,105.23388909799996,105.65052558900061,106.45052539000062,106.95068167800036,106.45052539000062,None,,,,,,2,001,exponential,rgby,0.35-0.75,2021_May_17_1305,color_judgement_and_subjective_perception,2020.2.10,59.92403681561325,
3,0.9,training,1000000000000,,0,20,20,20,,,,,,,,,,,,,,,,,107.55082297200079,None,k,1.4303680120001445,107.64210368600015,None,107.05065159900005,107.46749007800008,109.10159553700032,109.60193574000004,109.10159553700032,None,,,,,,2,001,exponential,rgby,0.35-0.75,2021_May_17_1305,color_judgement_and_subjective_perception,2020.2.10,59.92403681561325,
1,0.9,training,1000000000000,,0,21,21,21,,,,,,,,,,,,,,,,,110.2021827970002,None,f,0.594190709999566,110.30218834800053,None,109.70194150900079,110.11891042200023,110.91861104700001,111.41888370400011,110.91861104700001,None,,,,,,2,001,exponential,rgby,0.35-0.75,2021_May_17_1305,color_judgement_and_subjective_perception,2020.2.10,59.92403681561325,
3,0.9,training,1000000000000,,0,22,22,22,,,,,,,,,,,,,,,,,112.0189299800004,None,k,0.9772709970002325,112.11914517100013,None,111.51901153900053,111.93563490300039,113.11990923900066,113.62005782600045,113.11990923900066,None,,,,,,2,001,exponential,rgby,0.35-0.75,2021_May_17_1305,color_judgement_and_subjective_perception,2020.2.10,59.92403681561325,
2,0.9,training,1000000000000,,0,23,23,23,,,,,,,,,,,,,,,,,114.22020006900038,None,j,1.200415551000333,114.32003524300035,None,113.72005455100043,114.13683535100063,115.53703051400043,116.03704900400044,115.53703051400043,None,,,,,,2,001,exponential,rgby,0.35-0.75,2021_May_17_1305,color_judgement_and_subjective_perception,2020.2.10,59.92403681561325,
1,0.9,training,1000000000000,,0,24,24,24,,,,,,,,,,,,,,,,,116.63728701800028,None,f,0.9353306310003973,116.73715084800006,None,116.1370809100008,116.55377382000006,117.70472970500032,118.20510838200062,117.70472970500032,None,,,,,,2,001,exponential,rgby,0.35-0.75,2021_May_17_1305,color_judgement_and_subjective_perception,2020.2.10,59.92403681561325,
2,0.9,training,1000000000000,,0,25,25,25,,,,,,,,,,,,,,,,,118.80495089000033,None,j,1.1435302499994577,118.90497611400042,None,118.30495474500003,118.72163797300072,120.07189107900012,120.57201234100012,120.07189107900012,None,,,,,,2,001,exponential,rgby,0.35-0.75,2021_May_17_1305,color_judgement_and_subjective_perception,2020.2.10,59.92403681561325,
3,0.9,training,1000000000000,,0,26,26,26,,,,,,,,,,,,,,,,,121.17200802600019,None,k,0.9126228720006111,121.27191649399992,None,120.67183390500031,121.08884764300001,122.20549286900041,122.68980720200034,122.20549286900041,None,,,,,,2,001,exponential,rgby,0.35-0.75,2021_May_17_1305,color_judgement_and_subjective_perception,2020.2.10,59.92403681561325,
0,0.9,training,1000000000000,,0,27,27,27,,,,,,,,,,,,,,,,,123.28989580899997,None,d,0.6504605860000083,123.38993544500045,None,122.78983200300081,123.2065174090003,124.07322462100001,124.57351785400078,124.07322462100001,None,,,,,,2,001,exponential,rgby,0.35-0.75,2021_May_17_1305,color_judgement_and_subjective_perception,2020.2.10,59.92403681561325,
1,0.9,training,1000000000000,,0,28,28,28,,,,,,,,,,,,,,,,,125.17365549200076,None,f,0.49475250900013634,125.27376413500042,None,124.67354876700028,125.09010463400045,125.79023129800044,126.29040506300043,125.79023129800044,None,,,,,,2,001,exponential,rgby,0.35-0.75,2021_May_17_1305,color_judgement_and_subjective_perception,2020.2.10,59.92403681561325,
2,0.9,training,1000000000000,,0,29,29,29,,,,,,,,,,,,,,,,,126.89049999600047,None,j,0.5541454070007603,126.99037069900078,None,126.39034684000035,126.80700219000028,127.57366376900063,128.05815044500014,127.57366376900063,None,,,,,,2,001,exponential,rgby,0.35-0.75,2021_May_17_1305,color_judgement_and_subjective_perception,2020.2.10,59.92403681561325,
3,0.9,training,1000000000000,,0,30,30,30,,,,,,,,,,,,,,,,,128.6581359770007,None,k,0.33828415500011033,128.75820932200077,None,128.15803778900045,128.575036964,129.12493022500075,129.62508667400016,129.12493022500075,None,,,,,,2,001,exponential,rgby,0.35-0.75,2021_May_17_1305,color_judgement_and_subjective_perception,2020.2.10,59.92403681561325,
0,0.9,training,1000000000000,,0,31,31,31,,,,,,,,,,,,,,,,,130.2251631880008,None,d,0.33127935100037575,130.3251932610001,None,129.72496387299998,130.1418762940002,130.67515171100058,131.17525509900042,130.67515171100058,None,,,,,,2,001,exponential,rgby,0.35-0.75,2021_May_17_1305,color_judgement_and_subjective_perception,2020.2.10,59.92403681561325,
0,0.9,training,1000,,,,,,0,0,0,0,,,,,,,,,,,,,136.96018969500074,None,d,0.3639994579998529,137.06044632700014,None,136.46304888100076,136.8769068620004,137.44365765800012,137.92790832500032,137.44365765800012,None,,,,,,2,001,exponential,rgby,0.35-0.75,2021_May_17_1305,color_judgement_and_subjective_perception,2020.2.10,59.92403681561325,
1,0.9,training,1000,,,,,,0,1,1,1,,,,,,,,,,,,,138.52798572400025,None,j,0.3965273910007454,138.62798375400052,None,138.02805569300017,138.44468175900056,139.04456212900004,139.54487133400016,139.04456212900004,None,,,,,,2,001,exponential,rgby,0.35-0.75,2021_May_17_1305,color_judgement_and_subjective_perception,2020.2.10,59.92403681561325,
2,0.9,training,1000,,,,,,0,2,2,2,,,,,,,,,,,,,140.1450051770007,None,j,0.7155066389996136,140.24499523100076,None,139.64489318400047,140.06176638500074,140.97814259999996,141.47853356199994,140.97814259999996,None,,,,,,2,001,exponential,rgby,0.35-0.75,2021_May_17_1305,color_judgement_and_subjective_perception,2020.2.10,59.92403681561325,
3,0.9,training,1000,,,,,,0,3,3,3,,,,,,,,,,,,,142.07861774100002,None,f,0.4536990130000049,142.17878030700012,None,141.57841385400025,141.99522537700068,142.65715781900053,143.14642873499997,142.65715781900053,None,,,,,,2,001,exponential,rgby,0.35-0.75,2021_May_17_1305,color_judgement_and_subjective_perception,2020.2.10,59.92403681561325,
0,0.9,training,1000,,,,,,0,4,4,4,,,,,,,,,,,,,143.74613172700083,None,d,0.7940795220001746,143.84634641699995,None,143.246210968,143.66299592400082,144.6627959080006,145.16291206700043,144.6627959080006,None,,,,,,2,001,exponential,rgby,0.35-0.75,2021_May_17_1305,color_judgement_and_subjective_perception,2020.2.10,59.92403681561325,
3,0.9,training,1000,,,,,,0,5,5,5,,,,,,,,,,,,,145.7631807430007,None,k,0.5453172380002798,145.86320615300065,None,145.26287847100048,145.6800599850003,146.4300445430008,146.93012372200064,146.4300445430008,None,,,,,,2,001,exponential,rgby,0.35-0.75,2021_May_17_1305,color_judgement_and_subjective_perception,2020.2.10,59.92403681561325,
2,0.9,training,1000,,,,,,0,6,6,6,,,,,,,,,,,,,147.53026247100024,None,j,0.8022351580002578,147.6302776450002,None,147.03003650600022,147.44689316400036,148.46437339500062,148.96450351100066,148.46437339500062,None,,,,,,2,001,exponential,rgby,0.35-0.75,2021_May_17_1305,color_judgement_and_subjective_perception,2020.2.10,59.92403681561325,
3,0.9,training,1000,,,,,,0,7,7,7,,,,,,,,,,,,,149.5646929430004,None,k,0.35178763599924423,149.66468958400037,None,149.0645236070004,149.48134377299994,150.04808230900016,150.548225646,150.04808230900016,None,,,,,,2,001,exponential,rgby,0.35-0.75,2021_May_17_1305,color_judgement_and_subjective_perception,2020.2.10,59.92403681561325,
0,0.9,training,1000,,,,,,0,8,8,8,,,,,,,,,,,,,151.1482661,None,d,0.7281579679993229,151.24832030900052,None,150.64817761300037,151.06497361900074,151.998444027,152.4984500570008,151.998444027,None,,,,,,2,001,exponential,rgby,0.35-0.75,2021_May_17_1305,color_judgement_and_subjective_perception,2020.2.10,59.92403681561325,
2,0.9,training,1000,,,,,,0,9,9,9,,,,,,,,,,,,,153.08253973499995,None,None,-1,153.18265407800027,None,152.59848455200063,152.99933567400058,154.08267743800025,154.58300578000035,154.08267743800025,None,,,,,,2,001,exponential,rgby,0.35-0.75,2021_May_17_1305,color_judgement_and_subjective_perception,2020.2.10,59.92403681561325,
1,0.9,training,1000,,,,,,0,10,10,10,,,,,,,,,,,,,155.18326404900017,None,d,0.8212534639997102,155.2832577070003,None,154.68297903300027,155.09989216600025,156.1329676840005,156.63324506700064,156.1329676840005,None,,,,,,2,001,exponential,rgby,0.35-0.75,2021_May_17_1305,color_judgement_and_subjective_perception,2020.2.10,59.92403681561325,
0,0.9,training,1000,,,,,,0,11,11,11,,,,,,,,,,,,,157.2334477660006,None,d,0.7470382069996049,157.33348219100026,None,156.733194034,157.15004716800013,158.10098624400052,158.60116900000048,158.10098624400052,None,,,,,,2,001,exponential,rgby,0.35-0.75,2021_May_17_1305,color_judgement_and_subjective_perception,2020.2.10,59.92403681561325,
3,0.9,training,1000,,,,,,0,12,12,12,,,,,,,,,,,,,159.20122585400077,None,f,0.8593719880000208,159.30112272099996,None,158.70107041600022,159.11780495200037,160.18455349300075,160.6848692880003,160.18455349300075,None,,,,,,2,001,exponential,rgby,0.35-0.75,2021_May_17_1305,color_judgement_and_subjective_perception,2020.2.10,59.92403681561325,
0,0.9,training,1000,,,,,,0,13,13,13,,,,,,,,,,,,,161.28485815500062,None,d,0.7916251810001995,161.3848593720004,None,160.78471632700075,161.20154028200068,162.20149798200055,162.68593364400022,162.20149798200055,None,,,,,,2,001,exponential,rgby,0.35-0.75,2021_May_17_1305,color_judgement_and_subjective_perception,2020.2.10,59.92403681561325,
1,0.9,training,1000,,,,,,0,14,14,14,,,,,,,,,,,,,163.28594751700075,None,f,0.5985418620002747,163.38588757300022,None,162.7858207600002,163.20266132400047,164.0024684760001,164.5029042420001,164.0024684760001,None,,,,,,2,001,exponential,rgby,0.35-0.75,2021_May_17_1305,color_judgement_and_subjective_perception,2020.2.10,59.92403681561325,
2,0.9,training,1000,,,,,,0,15,15,15,,,,,,,,,,,,,165.10300319900034,None,j,0.5414845010000136,165.20302470300066,None,164.6026687600006,165.0197720010001,165.76949140000033,166.26968221900006,165.76949140000033,None,,,,,,2,001,exponential,rgby,0.35-0.75,2021_May_17_1305,color_judgement_and_subjective_perception,2020.2.10,59.92403681561325,
1,0.9,training,1000,,,,,,0,16,16,16,,,,,,,,,,,,,166.8697913800006,None,None,-1,166.96973595000054,None,166.36966942400068,166.78638053600025,167.85397265400024,168.3540823330004,167.85397265400024,None,,,,,,2,001,exponential,rgby,0.35-0.75,2021_May_17_1305,color_judgement_and_subjective_perception,2020.2.10,59.92403681561325,
3,0.9,training,1000,,,,,,0,17,17,17,,,,,,,,,,,,,168.9542502510003,None,k,0.810148176000439,169.05429877300048,None,168.45418863900068,168.8710830580003,169.8876167390008,170.38796402700063,169.8876167390008,None,,,,,,2,001,exponential,rgby,0.35-0.75,2021_May_17_1305,color_judgement_and_subjective_perception,2020.2.10,59.92403681561325,
0,0.9,training,1000,,,,,,0,18,18,18,,,,,,,,,,,,,170.9879878970005,None,d,0.4326325289994202,171.08787251800004,None,170.48788871600027,170.90456814400022,171.53785674000028,172.03820553400055,171.53785674000028,None,,,,,,2,001,exponential,rgby,0.35-0.75,2021_May_17_1305,color_judgement_and_subjective_perception,2020.2.10,59.92403681561325,
3,0.9,training,1000,,,,,,0,19,19,19,,,,,,,,,,,,,172.63804760700077,None,None,-1,172.72236274900024,None,172.1381132510005,172.55496774900075,173.62230055200052,174.1225394940002,173.62230055200052,None,,,,,,2,001,exponential,rgby,0.35-0.75,2021_May_17_1305,color_judgement_and_subjective_perception,2020.2.10,59.92403681561325,
2,0.9,training,1000,,,,,,0,20,20,20,,,,,,,,,,,,,174.72267253000064,None,None,-1,174.82275834700067,None,174.22247077500015,174.63931514500018,175.72283549000076,176.22281210000074,175.72283549000076,None,,,,,,2,001,exponential,rgby,0.35-0.75,2021_May_17_1305,color_judgement_and_subjective_perception,2020.2.10,59.92403681561325,
3,0.9,training,1000,,,,,,0,21,21,21,,,,,,,,,,,,,176.82297934300004,None,k,0.43754876099956164,176.92294282700004,None,176.32292368100025,176.7395549790008,177.38959412300028,177.87393451000025,177.38959412300028,None,,,,,,2,001,exponential,rgby,0.35-0.75,2021_May_17_1305,color_judgement_and_subjective_perception,2020.2.10,59.92403681561325,
2,0.9,training,1000,,,,,,0,22,22,22,,,,,,,,,,,,,178.47386418500082,None,j,0.48254773000007845,178.57397458100058,None,177.97393687300064,178.3906712550006,179.0740099300001,179.57428505999997,179.0740099300001,None,,,,,,2,001,exponential,rgby,0.35-0.75,2021_May_17_1305,color_judgement_and_subjective_perception,2020.2.10,59.92403681561325,
3,0.9,training,1000,,,,,,0,23,23,23,,,,,,,,,,,,,180.17454897100015,None,k,0.5099667750000663,180.27454996400047,None,179.6742888050003,180.091022265,180.8075241960005,181.3078409510008,180.8075241960005,None,,,,,,2,001,exponential,rgby,0.35-0.75,2021_May_17_1305,color_judgement_and_subjective_perception,2020.2.10,59.92403681561325,
1,0.9,training,1000,,,,,,0,24,24,24,,,,,,,,,,,,,181.90789640000003,None,d,0.6405519350000759,182.00792832300067,None,181.40773056700073,181.82468943799995,182.66966676800075,183.15898192800069,182.66966676800075,None,,,,,,2,001,exponential,rgby,0.35-0.75,2021_May_17_1305,color_judgement_and_subjective_perception,2020.2.10,59.92403681561325,
3,0.9,training,1000,,,,,,0,25,25,25,,,,,,,,,,,,,183.75909835600032,None,k,0.4934998959997756,183.8590064480004,None,183.25879087900012,183.6757679000002,184.3756794990004,184.85932598,184.3756794990004,None,,,,,,2,001,exponential,rgby,0.35-0.75,2021_May_17_1305,color_judgement_and_subjective_perception,2020.2.10,59.92403681561325,
0,0.9,training,1000,,,,,,0,26,26,26,,,,,,,,,,,,,185.44289281000056,None,d,0.49777516900030605,185.5427086970003,None,184.9592464590005,185.36046085700036,186.05790719800007,186.45953719200043,186.05790719800007,None,,,,,,2,001,exponential,rgby,0.35-0.75,2021_May_17_1305,color_judgement_and_subjective_perception,2020.2.10,59.92403681561325,
2,0.9,training,1000,,,,,,0,27,27,27,,,,,,,,,,,,,187.05954179700075,None,j,0.5768753199999992,187.15962124199996,None,186.55945019299998,186.97623042100076,187.76043578000008,188.2604726360005,187.76043578000008,None,,,,,,2,001,exponential,rgby,0.35-0.75,2021_May_17_1305,color_judgement_and_subjective_perception,2020.2.10,59.92403681561325,
0,0.9,training,1000,,,,,,0,28,28,28,,,,,,,,,,,,,188.86070155500056,None,None,-1,188.96067369400043,None,188.36064525500024,188.77731976700034,189.86069229400073,190.36106072000075,189.86069229400073,None,,,,,,2,001,exponential,rgby,0.35-0.75,2021_May_17_1305,color_judgement_and_subjective_perception,2020.2.10,59.92403681561325,
2,0.9,training,1000,,,,,,0,29,29,29,,,,,,,,,,,,,190.96091727900057,None,j,0.8753859130001729,191.06110400000034,None,190.46096302200021,190.87764262700057,191.96102522399997,192.46127130100012,191.96102522399997,None,,,,,,2,001,exponential,rgby,0.35-0.75,2021_May_17_1305,color_judgement_and_subjective_perception,2020.2.10,59.92403681561325,
1,0.9,training,1000,,,,,,0,30,30,30,,,,,,,,,,,,,193.04548710100062,None,f,0.6629790810002305,193.14554033700006,None,192.56106952000027,192.96210581600008,193.82880456800012,194.32896244400035,193.82880456800012,None,,,,,,2,001,exponential,rgby,0.35-0.75,2021_May_17_1305,color_judgement_and_subjective_perception,2020.2.10,59.92403681561325,
3,0.9,training,1000,,,,,,0,31,31,31,,,,,,,,,,,,,194.92912127900036,None,None,-1,195.0291392220006,None,194.4290324880003,194.84567484500076,195.92886690900013,196.4292559180003,195.92886690900013,None,,,,,,2,001,exponential,rgby,0.35-0.75,2021_May_17_1305,color_judgement_and_subjective_perception,2020.2.10,59.92403681561325,
0,0.9,training,1000,,,,,,0,32,32,32,,,,,,,,,,,,,197.0294318160004,None,d,0.719029314999716,197.129464396,None,196.5291893270005,196.94602345900057,197.88022212100077,198.38044205000006,197.88022212100077,None,,,,,,2,001,exponential,rgby,0.35-0.75,2021_May_17_1305,color_judgement_and_subjective_perception,2020.2.10,59.92403681561325,
3,0.9,training,1000,,,,,,0,33,33,33,,,,,,,,,,,,,198.98045246700076,None,k,0.5999531650004428,199.08057007800016,None,198.48038539800018,198.89720824100004,199.6971836390003,200.1974878200008,199.6971836390003,None,,,,,,2,001,exponential,rgby,0.35-0.75,2021_May_17_1305,color_judgement_and_subjective_perception,2020.2.10,59.92403681561325,
1,0.9,training,1000,,,,,,0,34,34,34,,,,,,,,,,,,,200.79765516000043,None,f,0.7589953010001409,200.89749551400018,None,200.29757866399996,200.71414087200083,201.680646756,202.18098266500056,201.680646756,None,,,,,,2,001,exponential,rgby,0.35-0.75,2021_May_17_1305,color_judgement_and_subjective_perception,2020.2.10,59.92403681561325,
2,0.9,training,1000,,,,,,0,35,35,35,,,,,,,,,,,,,202.7652268820002,None,j,0.5513094799998726,202.86519837000014,None,202.2809657860007,202.68218267800057,203.44846955499997,203.94883269300044,203.44846955499997,None,,,,,,2,001,exponential,rgby,0.35-0.75,2021_May_17_1305,color_judgement_and_subjective_perception,2020.2.10,59.92403681561325,
0,0.9,training,1000,,,,,,0,36,36,36,,,,,,,,,,,,,204.54885163700055,None,d,0.6235031549995256,204.64899461700043,None,204.0486652110003,204.46553326100002,205.29893103800077,205.79901222800072,205.29893103800077,None,,,,,,2,001,exponential,rgby,0.35-0.75,2021_May_17_1305,color_judgement_and_subjective_perception,2020.2.10,59.92403681561325,
1,0.9,training,1000,,,,,,0,37,37,37,,,,,,,,,,,,,206.399025703,None,j,0.7094107570001142,206.49906434900004,None,205.8988057940005,206.31582960200012,207.2325288560005,207.71689236400016,207.2325288560005,None,,,,,,2,001,exponential,rgby,0.35-0.75,2021_May_17_1305,color_judgement_and_subjective_perception,2020.2.10,59.92403681561325,
2,0.9,training,1000,,,,,,0,38,38,38,,,,,,,,,,,,,208.3169546980007,None,j,0.7354981250000492,208.41699272500045,None,207.8168813400007,208.23369842600005,209.18355049799993,209.68389078600012,209.18355049799993,None,,,,,,2,001,exponential,rgby,0.35-0.75,2021_May_17_1305,color_judgement_and_subjective_perception,2020.2.10,59.92403681561325,
1,0.9,training,1000,,,,,,0,39,39,39,,,,,,,,,,,,,210.28403925100065,None,f,0.5364340579999407,210.38404469300076,None,209.7838300930007,210.20054833800077,210.95059930000025,211.4506386660005,210.95059930000025,None,,,,,,2,001,exponential,rgby,0.35-0.75,2021_May_17_1305,color_judgement_and_subjective_perception,2020.2.10,59.92403681561325,
0,0.9,training,1000,,,,,,0,40,40,40,,,,,,,,,,,,,212.05089427000075,None,d,0.4816467800001192,212.15086809000059,None,211.55071700000008,211.96761307199995,212.6507127090008,213.1351463480005,212.6507127090008,None,,,,,,2,001,exponential,rgby,0.35-0.75,2021_May_17_1305,color_judgement_and_subjective_perception,2020.2.10,59.92403681561325,
1,0.9,training,1000,,,,,,0,41,41,41,,,,,,,,,,,,,213.73527776600076,None,j,0.5172875429998385,213.83514106200073,None,213.2351842930002,213.6518662110002,214.385500288,214.88548489300047,214.385500288,None,,,,,,2,001,exponential,rgby,0.35-0.75,2021_May_17_1305,color_judgement_and_subjective_perception,2020.2.10,59.92403681561325,
0,0.9,training,1000,,,,,,0,42,42,42,,,,,,,,,,,,,215.4856519950008,None,None,-1,215.58560339300038,None,214.98545075900074,215.40239298699998,216.48553437900046,216.9856925440008,216.48553437900046,None,,,,,,2,001,exponential,rgby,0.35-0.75,2021_May_17_1305,color_judgement_and_subjective_perception,2020.2.10,59.92403681561325,
1,0.9,training,1000,,,,,,0,43,43,43,,,,,,,,,,,,,217.58583109900064,None,f,0.4593309390002105,217.67720887900032,None,217.08568686200033,217.50259104500037,218.15336892600044,218.65328795200003,218.15336892600044,None,,,,,,2,001,exponential,rgby,0.35-0.75,2021_May_17_1305,color_judgement_and_subjective_perception,2020.2.10,59.92403681561325,
2,0.9,training,1000,,,,,,0,44,44,44,,,,,,,,,,,,,219.25361368300037,None,j,0.5189376499993159,219.3535635220005,None,218.7535178550006,219.1702416520002,219.9036341180008,220.403926297,219.9036341180008,None,,,,,,2,001,exponential,rgby,0.35-0.75,2021_May_17_1305,color_judgement_and_subjective_perception,2020.2.10,59.92403681561325,
1,0.9,training,1000,,,,,,0,45,45,45,,,,,,,,,,,,,221.00388457999998,None,f,0.6005157529998542,221.10392507100005,None,220.50382960600018,220.92060791400036,221.73720848200082,222.23741208699994,221.73720848200082,None,,,,,,2,001,exponential,rgby,0.35-0.75,2021_May_17_1305,color_judgement_and_subjective_perception,2020.2.10,59.92403681561325,
2,0.9,training,1000,,,,,,0,46,46,46,,,,,,,,,,,,,222.82173183900068,None,d,0.6147672429997328,222.92173422400083,None,222.33740225200017,222.738275187,223.55490536400066,224.0551119490001,223.55490536400066,None,,,,,,2,001,exponential,rgby,0.35-0.75,2021_May_17_1305,color_judgement_and_subjective_perception,2020.2.10,59.92403681561325,
3,0.9,training,1000,,,,,,0,47,47,47,,,,,,,,,,,,,224.6552044530008,None,j,0.5652299879993734,224.75529790100063,None,224.1550091500003,224.5719504360004,225.33862867900007,225.8389625610007,225.33862867900007,None,,,,,,2,001,exponential,rgby,0.35-0.75,2021_May_17_1305,color_judgement_and_subjective_perception,2020.2.10,59.92403681561325,
2,0.9,training,1000,,,,,,0,48,48,48,,,,,,,,,,,,,226.43892644700009,None,j,0.5095840579997457,226.53894663600022,None,225.93874491600036,226.35549769299996,227.0721423040004,227.57237615300073,227.0721423040004,None,,,,,,2,001,exponential,rgby,0.35-0.75,2021_May_17_1305,color_judgement_and_subjective_perception,2020.2.10,59.92403681561325,
1,0.9,training,1000,,,,,,0,49,49,49,,,,,,,,,,,,,228.15671534900048,None,None,-1,228.2567499120005,None,227.67097187700074,228.07336939200013,229.15651698400052,229.65668060700045,229.15651698400052,None,,,,,,2,001,exponential,rgby,0.35-0.75,2021_May_17_1305,color_judgement_and_subjective_perception,2020.2.10,59.92403681561325,
0,0.9,training,1000,,,,,,0,50,50,50,,,,,,,,,,,,,230.25701066400052,None,d,0.827288430000408,230.3571361560007,None,229.756824219,230.1736821200002,231.20685634800066,231.70711986700007,231.20685634800066,None,,,,,,2,001,exponential,rgby,0.35-0.75,2021_May_17_1305,color_judgement_and_subjective_perception,2020.2.10,59.92403681561325,
0,0.9,training,1000,,,,,,0,51,51,51,,,,,,,,,,,,,232.30736197900023,None,d,0.49743719900016004,232.4070840760005,None,231.8069369900004,232.22401092400014,232.924819242,233.42480555900056,232.924819242,None,,,,,,2,001,exponential,rgby,0.35-0.75,2021_May_17_1305,color_judgement_and_subjective_perception,2020.2.10,59.92403681561325,
1,0.9,training,1000,,,,,,0,52,52,52,,,,,,,,,,,,,234.02495679799995,None,f,0.4035420959999101,234.12495018500067,None,233.5248444960007,233.941557139,234.55695185600052,235.041992339,234.55695185600052,None,,,,,,2,001,exponential,rgby,0.35-0.75,2021_May_17_1305,color_judgement_and_subjective_perception,2020.2.10,59.92403681561325,
3,0.9,training,1000,,,,,,0,53,53,53,,,,,,,,,,,,,235.64050272400073,None,None,-1,235.72524110500035,None,235.1418171130008,235.55863918200066,236.27053953700033,236.5570254560007,236.27053953700033,None,,,,,,2,001,exponential,rgby,0.35-0.75,2021_May_17_1305,color_judgement_and_subjective_perception,2020.2.10,59.92403681561325,
3,0.9,training,1000,,,,,,0,54,54,54,,,,,,,,,,,,,237.05875655900036,None,k,0.36167328900046414,237.15880104200005,None,236.61307511300038,236.97522170499997,237.5419448800003,238.02652966000005,237.5419448800003,None,,,,,,2,001,exponential,rgby,0.35-0.75,2021_May_17_1305,color_judgement_and_subjective_perception,2020.2.10,59.92403681561325,
2,0.9,training,1000,,,,,,0,55,55,55,,,,,,,,,,,,,238.626562638,None,d,0.7379208889997244,238.72661899100058,None,238.12649757800045,238.54326424200008,239.49316427800022,239.9934766690003,239.49316427800022,None,,,,,,2,001,exponential,rgby,0.35-0.75,2021_May_17_1305,color_judgement_and_subjective_perception,2020.2.10,59.92403681561325,
3,0.9,training,1000,,,,,,0,56,56,56,,,,,,,,,,,,,240.59351033300027,None,k,0.4189085759999216,240.69361239800037,None,240.09343207300026,240.51020778900056,241.14323819100082,241.64362434000031,241.14323819100082,None,,,,,,2,001,exponential,rgby,0.35-0.75,2021_May_17_1305,color_judgement_and_subjective_perception,2020.2.10,59.92403681561325,
2,0.9,training,1000,,,,,,0,57,57,57,,,,,,,,,,,,,242.2438286860006,None,j,0.3047231360005753,242.34378022800047,None,241.7436219780002,242.16030078200038,242.67569915900003,243.16150675800054,242.67569915900003,None,,,,,,2,001,exponential,rgby,0.35-0.75,2021_May_17_1305,color_judgement_and_subjective_perception,2020.2.10,59.92403681561325,
0,0.9,training,1000,,,,,,0,58,58,58,,,,,,,,,,,,,243.7613549050002,None,d,0.7230100739998306,243.86148143400078,None,243.26150435599993,243.67806236900014,244.61152487400068,245.11161311900014,244.61152487400068,None,,,,,,2,001,exponential,rgby,0.35-0.75,2021_May_17_1305,color_judgement_and_subjective_perception,2020.2.10,59.92403681561325,
1,0.9,training,1000,,,,,,0,59,59,59,,,,,,,,,,,,,245.7116467880005,None,f,0.2926547520000895,245.8118365420005,None,245.21177333200012,245.62845398400077,246.12834194900006,246.62845541700062,246.12834194900006,None,,,,,,2,001,exponential,rgby,0.35-0.75,2021_May_17_1305,color_judgement_and_subjective_perception,2020.2.10,59.92403681561325,
0,0.9,training,1000,,,,,,0,60,60,60,,,,,,,,,,,,,247.22869244699996,None,d,0.5038414589998865,247.32866668900078,None,246.72848783000063,247.1453205430007,247.8628294500004,248.3628306620003,247.8628294500004,None,,,,,,2,001,exponential,rgby,0.35-0.75,2021_May_17_1305,color_judgement_and_subjective_perception,2020.2.10,59.92403681561325,
3,0.9,training,1000,,,,,,0,61,61,61,,,,,,,,,,,,,248.9631071190006,None,k,0.577281810000386,249.0631402150002,None,248.4629207020007,248.8797717010002,249.6630201450007,250.1633251610001,249.6630201450007,None,,,,,,2,001,exponential,rgby,0.35-0.75,2021_May_17_1305,color_judgement_and_subjective_perception,2020.2.10,59.92403681561325,
1,0.9,training,1000,,,,,,0,62,62,62,,,,,,,,,,,,,250.763319916,None,j,0.36924269900009676,250.86327450600038,None,250.26321162600016,250.6799723030008,251.26317715999994,251.76353535500039,251.26317715999994,None,,,,,,2,001,exponential,rgby,0.35-0.75,2021_May_17_1305,color_judgement_and_subjective_perception,2020.2.10,59.92403681561325,
1,0.9,training,1000,,,,,,0,63,63,63,,,,,,,,,,,,,252.36350529300034,None,f,0.46475888900022255,252.46372617399993,None,251.86344099300004,252.28019229000074,252.94774426000004,253.44775870800004,252.94774426000004,None,,,,,,2,001,exponential,rgby,0.35-0.75,2021_May_17_1305,color_judgement_and_subjective_perception,2020.2.10,59.92403681561325,
2,0.9,training,1000,,,,,,0,64,64,64,,,,,,,,,,,,,254.04790560400033,None,d,0.4925652989995797,254.14789660600036,None,253.54787102900082,253.96469461200013,254.66454226400037,255.16480922900064,254.66454226400037,None,,,,,,2,001,exponential,rgby,0.35-0.75,2021_May_17_1305,color_judgement_and_subjective_perception,2020.2.10,59.92403681561325,
3,0.9,training,1000,,,,,,0,65,65,65,,,,,,,,,,,,,255.7649037200008,None,None,-1,255.86487673100055,None,255.2648218230006,255.68161920500006,256.7649367010008,257.2651904410004,256.7649367010008,None,,,,,,2,001,exponential,rgby,0.35-0.75,2021_May_17_1305,color_judgement_and_subjective_perception,2020.2.10,59.92403681561325,
3,0.9,training,1000,,,,,,0,66,66,66,,,,,,,,,,,,,257.84958218500014,None,k,0.42704101400067884,257.94946530200014,None,257.3651793000008,257.766087813,258.3992393610006,258.8996177550007,258.3992393610006,None,,,,,,2,001,exponential,rgby,0.35-0.75,2021_May_17_1305,color_judgement_and_subjective_perception,2020.2.10,59.92403681561325,
2,0.9,training,1000,,,,,,0,67,67,67,,,,,,,,,,,,,259.4997888020007,None,j,0.5847270609992847,259.59978499800036,None,258.9995286350004,259.4162982890002,260.216361537,260.7165030770002,260.216361537,None,,,,,,2,001,exponential,rgby,0.35-0.75,2021_May_17_1305,color_judgement_and_subjective_perception,2020.2.10,59.92403681561325,
1,0.9,training,1000,,,,,,0,68,68,68,,,,,,,,,,,,,261.3166035030008,None,None,-1,261.41656696800055,None,260.81645228900015,261.2332191360001,262.3165287390002,262.80100648500047,262.3165287390002,None,,,,,,2,001,exponential,rgby,0.35-0.75,2021_May_17_1305,color_judgement_and_subjective_perception,2020.2.10,59.92403681561325,
3,0.9,training,1000,,,,,,0,69,69,69,,,,,,,,,,,,,263.4010276500003,None,k,0.6433592590001354,263.501047408,None,262.9007868960007,263.3177346880002,264.16758542200023,264.6680187790007,264.16758542200023,None,,,,,,2,001,exponential,rgby,0.35-0.75,2021_May_17_1305,color_judgement_and_subjective_perception,2020.2.10,59.92403681561325,
0,0.9,training,1000,,,,,,0,70,70,70,,,,,,,,,,,,,265.26804568900025,None,d,0.3845713050004633,265.36793760800083,None,264.7678919730006,265.1847610630002,265.7845641390004,266.28494211399993,265.7845641390004,None,,,,,,2,001,exponential,rgby,0.35-0.75,2021_May_17_1305,color_judgement_and_subjective_perception,2020.2.10,59.92403681561325,
2,0.9,training,1000,,,,,,0,71,71,71,,,,,,,,,,,,,266.8845561570006,None,j,0.5839713320001465,266.98457928600055,None,266.38485633100026,266.8012172200006,267.60167091900075,268.08609035600057,267.60167091900075,None,,,,,,2,001,exponential,rgby,0.35-0.75,2021_May_17_1305,color_judgement_and_subjective_perception,2020.2.10,59.92403681561325,
2,0.9,training,1000,,,,,,0,72,72,72,,,,,,,,,,,,,268.6861135090003,None,j,0.43857835000017076,268.78591758200037,None,268.1858478330005,268.6025454770006,269.25261571900046,269.7529144960008,269.25261571900046,None,,,,,,2,001,exponential,rgby,0.35-0.75,2021_May_17_1305,color_judgement_and_subjective_perception,2020.2.10,59.92403681561325,
3,0.9,training,1000,,,,,,0,73,73,73,,,,,,,,,,,,,270.35289247900073,None,k,0.4914418509997631,270.4530759270001,None,269.8526397830001,270.2696450170006,270.9695579420004,271.46986014200047,270.9695579420004,None,,,,,,2,001,exponential,rgby,0.35-0.75,2021_May_17_1305,color_judgement_and_subjective_perception,2020.2.10,59.92403681561325,
1,0.9,training,1000,,,,,,0,74,74,74,,,,,,,,,,,,,272.0698206630004,None,f,0.5666142319996652,272.16986598600033,None,271.5697165190004,271.98665798100046,272.75395666700024,273.2542537040008,272.75395666700024,None,,,,,,2,001,exponential,rgby,0.35-0.75,2021_May_17_1305,color_judgement_and_subjective_perception,2020.2.10,59.92403681561325,
0,0.9,training,1000,,,,,,0,75,75,75,,,,,,,,,,,,,273.85439677500017,None,d,0.3421633029993245,273.9543336250008,None,273.3541123550003,273.7708370010005,274.3208550090003,274.8211631990007,274.3208550090003,None,,,,,,2,001,exponential,rgby,0.35-0.75,2021_May_17_1305,color_judgement_and_subjective_perception,2020.2.10,59.92403681561325,
2,0.9,training,1000,,,,,,0,76,76,76,,,,,,,,,,,,,275.4213919220001,None,d,0.44709839099959936,275.5213917460005,None,274.9212298000002,275.33807442300076,275.9879296430008,276.4879171870007,275.9879296430008,None,,,,,,2,001,exponential,rgby,0.35-0.75,2021_May_17_1305,color_judgement_and_subjective_perception,2020.2.10,59.92403681561325,
3,0.9,training,1000,,,,,,0,77,77,77,,,,,,,,,,,,,277.08796964700014,None,j,0.5644177159992978,277.1880942500002,None,276.5879785850002,277.004770472,277.77239465599996,278.2725515030006,277.77239465599996,None,,,,,,2,001,exponential,rgby,0.35-0.75,2021_May_17_1305,color_judgement_and_subjective_perception,2020.2.10,59.92403681561325,
0,0.9,training,1000,,,,,,0,78,78,78,,,,,,,,,,,,,278.8726512350004,None,d,0.6838489890005803,278.97257365400037,None,278.3724387560005,278.78920192700025,279.68924154100023,280.18956060600067,279.68924154100023,None,,,,,,2,001,exponential,rgby,0.35-0.75,2021_May_17_1305,color_judgement_and_subjective_perception,2020.2.10,59.92403681561325,
3,0.9,training,1000,,,,,,0,79,79,79,,,,,,,,,,,,,280.7896203960008,None,j,0.5590160249994369,280.88947290600026,None,280.2894946340002,280.7062362380002,281.4727717120004,281.97299764200034,281.4727717120004,None,,,,,,2,001,exponential,rgby,0.35-0.75,2021_May_17_1305,color_judgement_and_subjective_perception,2020.2.10,59.92403681561325,
0,0.9,training,1000,,,,,,0,80,80,80,,,,,,,,,,,,,282.5730849210004,None,f,0.4714657089998582,282.6730532020001,None,282.07306876200073,282.48985690100017,283.17405958400013,283.67397344300025,283.17405958400013,None,,,,,,2,001,exponential,rgby,0.35-0.75,2021_May_17_1305,color_judgement_and_subjective_perception,2020.2.10,59.92403681561325,
3,0.9,training,1000,,,,,,0,81,81,81,,,,,,,,,,,,,284.2741493200001,None,k,0.7942797019995851,284.37413019700034,None,283.7739059400001,284.1910159630006,285.19086579800023,285.6912584870006,285.19086579800023,None,,,,,,2,001,exponential,rgby,0.35-0.75,2021_May_17_1305,color_judgement_and_subjective_perception,2020.2.10,59.92403681561325,
1,0.9,training,1000,,,,,,0,82,82,82,,,,,,,,,,,,,286.2911708800002,None,j,0.6251667930000622,286.39132220100055,None,285.7910514940004,286.2077447340007,287.0411227980003,287.5415027400004,287.0411227980003,None,,,,,,2,001,exponential,rgby,0.35-0.75,2021_May_17_1305,color_judgement_and_subjective_perception,2020.2.10,59.92403681561325,
3,0.9,training,1000,,,,,,0,83,83,83,,,,,,,,,,,,,288.1257127070003,None,k,0.43904690999988816,288.22546477500055,None,287.6412844940005,288.04239079500076,288.6921160940001,289.1923588010004,288.6921160940001,None,,,,,,2,001,exponential,rgby,0.35-0.75,2021_May_17_1305,color_judgement_and_subjective_perception,2020.2.10,59.92403681561325,
1,0.9,training,1000,,,,,,0,84,84,84,,,,,,,,,,,,,289.792472999,None,f,0.3158774080002331,289.8926305220002,None,289.2923145270006,289.70920152800045,290.2257907960002,290.7261289470007,290.2257907960002,None,,,,,,2,001,exponential,rgby,0.35-0.75,2021_May_17_1305,color_judgement_and_subjective_perception,2020.2.10,59.92403681561325,
1,0.9,training,1000,,,,,,0,85,85,85,,,,,,,,,,,,,291.32615437799996,None,f,0.4384447109996472,291.4260700250006,None,290.82600905300023,291.24267897700065,291.8928162450002,292.3929746140002,291.8928162450002,None,,,,,,2,001,exponential,rgby,0.35-0.75,2021_May_17_1305,color_judgement_and_subjective_perception,2020.2.10,59.92403681561325,
2,0.9,training,1000,,,,,,0,86,86,86,,,,,,,,,,,,,292.97722619600063,None,d,0.4351749400002518,293.0773589730006,None,292.49302147400067,292.8939361550001,293.54372917100045,294.04398309800035,293.54372917100045,None,,,,,,2,001,exponential,rgby,0.35-0.75,2021_May_17_1305,color_judgement_and_subjective_perception,2020.2.10,59.92403681561325,
2,0.9,training,1000,,,,,,0,87,87,87,,,,,,,,,,,,,294.64410558500003,None,j,0.4484504410002046,294.74406559199997,None,294.14399136200063,294.56067987200004,295.2108276910003,295.7110282600006,295.2108276910003,None,,,,,,2,001,exponential,rgby,0.35-0.75,2021_May_17_1305,color_judgement_and_subjective_perception,2020.2.10,59.92403681561325,
1,0.9,training,1000,,,,,,0,88,88,88,,,,,,,,,,,,,296.3108389180006,None,k,0.4294758960004401,296.4110266530006,None,295.8110520620003,296.2277130880002,296.8608933410005,297.36127327900067,296.8608933410005,None,,,,,,2,001,exponential,rgby,0.35-0.75,2021_May_17_1305,color_judgement_and_subjective_perception,2020.2.10,59.92403681561325,
2,0.9,training,1000,,,,,,0,89,89,89,,,,,,,,,,,,,297.945487469,None,d,0.546914189000745,298.04559378400063,None,297.4611075420007,297.86230884500037,298.61216279900054,299.112275036,298.61216279900054,None,,,,,,2,001,exponential,rgby,0.35-0.75,2021_May_17_1305,color_judgement_and_subjective_perception,2020.2.10,59.92403681561325,
2,0.9,training,1000,,,,,,0,90,90,90,,,,,,,,,,,,,299.7123108730002,None,None,-1,299.81253486600053,None,299.2122657960008,299.62907433500004,300.71246009100014,301.2127925270006,300.71246009100014,None,,,,,,2,001,exponential,rgby,0.35-0.75,2021_May_17_1305,color_judgement_and_subjective_perception,2020.2.10,59.92403681561325,
0,0.9,training,1000,,,,,,0,91,91,91,,,,,,,,,,,,,301.81282037300025,None,None,-1,301.91285652700026,None,301.3124596860007,301.7293258230002,302.7969868120008,303.29715202100033,302.7969868120008,None,,,,,,2,001,exponential,rgby,0.35-0.75,2021_May_17_1305,color_judgement_and_subjective_perception,2020.2.10,59.92403681561325,
0,0.9,training,1000,,,,,,0,92,92,92,,,,,,,,,,,,,303.8970578460003,None,d,0.4353596679993643,303.99715223900057,None,303.3970087630005,303.8138640090001,304.4637486320007,304.96406517000014,304.4637486320007,None,,,,,,2,001,exponential,rgby,0.35-0.75,2021_May_17_1305,color_judgement_and_subjective_perception,2020.2.10,59.92403681561325,
1,0.9,training,1000,,,,,,0,93,93,93,,,,,,,,,,,,,305.56427015400004,None,f,0.32026444300026924,305.66422748900004,None,305.0640110560007,305.48085561100015,306.01414504700006,306.5141394100001,306.01414504700006,None,,,,,,2,001,exponential,rgby,0.35-0.75,2021_May_17_1305,color_judgement_and_subjective_perception,2020.2.10,59.92403681561325,
0,0.9,training,1000,,,,,,0,94,94,94,,,,,,,,,,,,,307.1143025650008,None,d,0.49812284000017826,307.21437559700007,None,306.61425114100075,307.031171437,307.73192423599994,308.23203730800014,307.73192423599994,None,,,,,,2,001,exponential,rgby,0.35-0.75,2021_May_17_1305,color_judgement_and_subjective_perception,2020.2.10,59.92403681561325,
0,0.9,training,1000,,,,,,0,95,95,95,,,,,,,,,,,,,308.83217169,None,d,0.6844275590001416,308.93210043199997,None,308.33202019000055,308.7487486530008,309.64865938599996,310.1491860570004,309.64865938599996,None,,,,,,2,001,exponential,rgby,0.35-0.75,2021_May_17_1305,color_judgement_and_subjective_perception,2020.2.10,59.92403681561325,
2,0.35,testing,1000,1,,,,,,,,,0,0,0,0,0,0,0,2,,,,,318.05186384100034,None,None,-1,318.1518843420008,None,317.5718587650008,317.96863492300054,319.05170819900013,319.552029552,319.05170819900013,None,0,0,21,,,2,001,exponential,rgby,0.35-0.75,2021_May_17_1305,color_judgement_and_subjective_perception,2020.2.10,59.92403681561325,
3,0.35,testing,1000,1,,,,,,,,,0,0,0,0,0,1,1,3,,,,,320.15215218899993,None,j,0.43618930200045725,320.2523065860005,None,319.65198174300076,320.0688635260003,320.71868316400014,321.21890182400057,320.71868316400014,None,38,38,0,,,2,001,exponential,rgby,0.35-0.75,2021_May_17_1305,color_judgement_and_subjective_perception,2020.2.10,59.92403681561325,
1,0.35,testing,1000,1,,,,,,,,,0,0,0,0,0,2,2,1,,,,,321.8190952170007,None,k,0.6254441809996933,321.9190536670003,None,321.31899659900046,321.7356349950005,322.5691038020004,323.0535242340002,322.5691038020004,None,0,25,0,,,2,001,exponential,rgby,0.35-0.75,2021_May_17_1305,color_judgement_and_subjective_perception,2020.2.10,59.92403681561325,
0,0.35,testing,1000,1,,,,,,,,,0,0,0,0,0,3,3,0,,,,,323.6534723450004,None,j,0.35915380899950833,323.753356018,None,323.15345583399994,323.5700846130003,324.13668880800014,324.63711514900024,324.13668880800014,None,30,10,0,,,2,001,exponential,rgby,0.35-0.75,2021_May_17_1305,color_judgement_and_subjective_perception,2020.2.10,59.92403681561325,
1,0.35,testing,1000,1,,,,,,,,,0,0,0,0,1,0,4,1,,,,,325.2371325590002,None,d,0.703387539000687,325.3371314420001,None,324.73679305800033,325.15379660100007,326.0704389770008,326.57062406600016,326.0704389770008,None,0,28,0,,,2,001,exponential,rgby,0.35-0.75,2021_May_17_1305,color_judgement_and_subjective_perception,2020.2.10,59.92403681561325,
0,0.35,testing,1000,1,,,,,,,,,0,0,0,0,1,1,5,0,,,,,327.17070925200005,None,j,0.33770814900071855,327.27081272600026,None,326.67055844100014,327.08726929300065,327.6373287410006,328.1215572910005,327.6373287410006,None,33,11,0,,,2,001,exponential,rgby,0.35-0.75,2021_May_17_1305,color_judgement_and_subjective_perception,2020.2.10,59.92403681561325,
2,0.35,testing,1000,1,,,,,,,,,0,0,0,0,1,2,6,2,,,,,328.7216434990005,None,None,-1,328.82151429700025,None,328.2215475510002,328.6383026100002,329.7216592049999,330.22220097400077,329.7216592049999,None,0,0,28,,,2,001,exponential,rgby,0.35-0.75,2021_May_17_1305,color_judgement_and_subjective_perception,2020.2.10,59.92403681561325,
3,0.35,testing,1000,1,,,,,,,,,0,0,0,0,1,3,7,3,,,,,330.8222163820001,None,k,0.34238404400002764,330.92209788500077,None,330.3218728800002,330.73884190600074,331.28856689700024,331.78893350199996,331.28856689700024,None,45,45,0,,,2,001,exponential,rgby,0.35-0.75,2021_May_17_1305,color_judgement_and_subjective_perception,2020.2.10,59.92403681561325,
0,0.35,testing,1000,1,,,,,,,,,0,0,0,0,2,0,8,0,,,,,332.3890751860008,None,j,0.263424579000457,332.4890880490002,None,331.88868318500045,332.3055189450006,332.7731919200005,333.2733421040002,332.7731919200005,None,37,12,0,,,2,001,exponential,rgby,0.35-0.75,2021_May_17_1305,color_judgement_and_subjective_perception,2020.2.10,59.92403681561325,
2,0.35,testing,1000,1,,,,,,,,,0,0,0,0,2,1,9,2,,,,,333.8733671710006,None,f,0.21911618200010707,333.9734041540005,None,333.37318191600025,333.78984225300064,334.22324700600075,334.72355548500036,334.22324700600075,None,0,0,32,,,2,001,exponential,rgby,0.35-0.75,2021_May_17_1305,color_judgement_and_subjective_perception,2020.2.10,59.92403681561325,
3,0.35,testing,1000,1,,,,,,,,,0,0,0,0,2,2,10,3,,,,,335.3236703720004,None,j,0.48070634599935147,335.42378151699995,None,334.82344778100014,335.2403162360006,335.92343696400076,336.42379065600016,335.92343696400076,None,49,49,0,,,2,001,exponential,rgby,0.35-0.75,2021_May_17_1305,color_judgement_and_subjective_perception,2020.2.10,59.92403681561325,
1,0.35,testing,1000,1,,,,,,,,,0,0,0,0,2,3,11,1,,,,,337.0238330780003,None,j,0.30862318399977084,337.1238734620001,None,336.5236434770004,336.94054588700055,337.4569199610005,337.94164209800056,337.4569199610005,None,0,36,0,,,2,001,exponential,rgby,0.35-0.75,2021_May_17_1305,color_judgement_and_subjective_perception,2020.2.10,59.92403681561325,
0,0.35,testing,1000,1,,,,,,,,,0,0,0,0,3,0,12,0,,,,,338.5416009310002,None,None,-1,338.6438165420004,None,338.0412901260006,338.45817796900064,339.54155457600064,340.041854866,339.54155457600064,None,42,14,0,,,2,001,exponential,rgby,0.35-0.75,2021_May_17_1305,color_judgement_and_subjective_perception,2020.2.10,59.92403681561325,
3,0.35,testing,1000,1,,,,,,,,,0,0,0,0,3,1,13,3,,,,,340.64188972100055,None,None,-1,340.74185633600064,None,340.1418119610007,340.55874873300036,341.6418454280001,342.14210315000037,341.6418454280001,None,53,53,0,,,2,001,exponential,rgby,0.35-0.75,2021_May_17_1305,color_judgement_and_subjective_perception,2020.2.10,59.92403681561325,
2,0.35,testing,1000,1,,,,,,,,,0,0,0,0,3,2,14,2,,,,,342.7269017280005,None,None,-1,342.8264758510004,None,342.2420558020003,342.6590642400006,343.72647341100037,344.2265510470006,343.72647341100037,None,0,0,38,,,2,001,exponential,rgby,0.35-0.75,2021_May_17_1305,color_judgement_and_subjective_perception,2020.2.10,59.92403681561325,
1,0.35,testing,1000,1,,,,,,,,,0,0,0,0,3,3,15,1,,,,,344.82679897400067,None,None,-1,344.9269034050003,None,344.32646139200006,344.7432714230008,345.82685590300025,346.3270159870008,345.82685590300025,None,0,41,0,,,2,001,exponential,rgby,0.35-0.75,2021_May_17_1305,color_judgement_and_subjective_perception,2020.2.10,59.92403681561325,
1,0.35,testing,1000,1,,,,,,,,,0,0,0,0,4,0,16,1,,,,,346.9270479200004,None,None,-1,347.0270298060004,None,346.42700985900046,346.8436274760006,347.9112712900005,348.4114184780001,347.9112712900005,None,0,43,0,,,2,001,exponential,rgby,0.35-0.75,2021_May_17_1305,color_judgement_and_subjective_perception,2020.2.10,59.92403681561325,
3,0.35,testing,1000,1,,,,,,,,,0,0,0,0,4,1,17,3,,,,,349.0113609660002,None,f,0.553042810000079,349.11144142300054,None,348.51131043700025,348.92793004800023,349.6947908840002,350.19513205600015,349.6947908840002,None,58,58,0,,,2,001,exponential,rgby,0.35-0.75,2021_May_17_1305,color_judgement_and_subjective_perception,2020.2.10,59.92403681561325,
0,0.35,testing,1000,1,,,,,,,,,0,0,0,0,4,2,18,0,,,,,350.7951914540008,None,d,0.7532148649997907,350.89526320999994,None,350.2947859700007,350.71171929699995,351.6783347590008,352.1785594080002,351.6783347590008,None,49,16,0,,,2,001,exponential,rgby,0.35-0.75,2021_May_17_1305,color_judgement_and_subjective_perception,2020.2.10,59.92403681561325,
2,0.35,testing,1000,1,,,,,,,,,0,0,0,0,4,3,19,2,,,,,352.76309038,None,j,0.8173900850006248,352.86309287900076,None,352.2787069640008,352.69526413099993,353.71271835900006,354.21313745099997,353.71271835900006,None,0,0,44,,,2,001,exponential,rgby,0.35-0.75,2021_May_17_1305,color_judgement_and_subjective_perception,2020.2.10,59.92403681561325,
1,0.35,testing,1000,1,,,,,,,,,0,0,0,0,5,0,20,1,,,,,354.8132283320001,None,d,0.6871623690003617,354.91334542500044,None,354.31296724500044,354.7298289140008,355.6297887950004,356.13005133000024,355.6297887950004,None,0,46,0,,,2,001,exponential,rgby,0.35-0.75,2021_May_17_1305,color_judgement_and_subjective_perception,2020.2.10,59.92403681561325,
2,0.35,testing,1000,1,,,,,,,,,0,0,0,0,5,1,21,2,,,,,356.7301875510002,None,None,-1,356.83009171200047,None,356.2300152860007,356.6468406900003,357.72536817200034,358.214445093,357.72536817200034,None,0,0,43,,,2,001,exponential,rgby,0.35-0.75,2021_May_17_1305,color_judgement_and_subjective_perception,2020.2.10,59.92403681561325,
0,0.35,testing,1000,1,,,,,,,,,0,0,0,0,5,2,22,0,,,,,358.81467025300026,None,d,0.7337333109999236,358.9146965260006,None,358.314389268,358.7312270320008,359.6812458510003,360.18167005800024,359.6812458510003,None,50,17,0,,,2,001,exponential,rgby,0.35-0.75,2021_May_17_1305,color_judgement_and_subjective_perception,2020.2.10,59.92403681561325,
3,0.35,testing,1000,1,,,,,,,,,0,0,0,0,5,3,23,3,,,,,360.7816285200006,None,f,0.5667491089998293,360.88164681300077,None,360.28151770600016,360.69839397600026,361.48151704500015,361.9817915900003,361.48151704500015,None,59,59,0,,,2,001,exponential,rgby,0.35-0.75,2021_May_17_1305,color_judgement_and_subjective_perception,2020.2.10,59.92403681561325,
0,0.35,testing,1000,1,,,,,,,,,0,0,0,0,6,0,24,0,,,,,362.5818458450003,None,d,0.4946738500002539,362.68191127000046,None,362.0817722219999,362.49852556299993,363.1993313490002,363.69960672400066,363.1993313490002,None,49,16,0,,,2,001,exponential,rgby,0.35-0.75,2021_May_17_1305,color_judgement_and_subjective_perception,2020.2.10,59.92403681561325,
2,0.35,testing,1000,1,,,,,,,,,0,0,0,0,6,1,25,2,,,,,364.2996362550002,None,k,0.5448866540000381,364.399614209,None,363.7995063080007,364.2161887700004,364.9662974990006,365.46661760000006,364.9662974990006,None,0,0,44,,,2,001,exponential,rgby,0.35-0.75,2021_May_17_1305,color_judgement_and_subjective_perception,2020.2.10,59.92403681561325,
1,0.35,testing,1000,1,,,,,,,,,0,0,0,0,6,2,26,1,,,,,366.0665706330001,None,f,0.7859042079999199,366.1665979920008,None,365.56658734600023,365.9830865390004,366.98312721300044,367.48345974900076,366.98312721300044,None,0,45,0,,,2,001,exponential,rgby,0.35-0.75,2021_May_17_1305,color_judgement_and_subjective_perception,2020.2.10,59.92403681561325,
3,0.35,testing,1000,1,,,,,,,,,0,0,0,0,6,3,27,3,,,,,368.06771557699994,None,k,0.8567826440003046,368.16772508400027,None,367.5833544900006,367.9842547540002,369.0509950530004,369.55124250600056,369.0509950530004,None,58,58,0,,,2,001,exponential,rgby,0.35-0.75,2021_May_17_1305,color_judgement_and_subjective_perception,2020.2.10,59.92403681561325,
2,0.35,testing,1000,1,,,,,,,,,0,0,0,0,7,0,28,2,,,,,370.15140042000075,None,j,0.7570540460001212,370.25145081400024,None,369.65122673600035,370.0680961400003,371.03477340100017,371.5349204620006,371.03477340100017,None,0,0,42,,,2,001,exponential,rgby,0.35-0.75,2021_May_17_1305,color_judgement_and_subjective_perception,2020.2.10,59.92403681561325,
0,0.35,testing,1000,1,,,,,,,,,0,0,0,0,7,1,29,0,,,,,372.13498184700074,None,d,0.6456985109998641,372.234713158,None,371.63475277199996,372.051720038,372.90260026100077,373.4027086770002,372.90260026100077,None,43,14,0,,,2,001,exponential,rgby,0.35-0.75,2021_May_17_1305,color_judgement_and_subjective_perception,2020.2.10,59.92403681561325,
1,0.35,testing,1000,1,,,,,,,,,0,0,0,0,7,2,30,1,,,,,374.00269018400013,None,f,0.48185297300005914,374.1026593730003,None,373.5026496370001,373.91943149300005,374.6028182910004,375.102969863,374.6028182910004,None,0,42,0,,,2,001,exponential,rgby,0.35-0.75,2021_May_17_1305,color_judgement_and_subjective_perception,2020.2.10,59.92403681561325,
3,0.35,testing,1000,1,,,,,,,,,0,0,0,0,7,3,31,3,,,,,375.703024165,None,j,0.7332505849999507,375.80316366200077,None,375.2029705490004,375.61973355100054,376.5531358120006,377.0531977820001,376.5531358120006,None,55,55,0,,,2,001,exponential,rgby,0.35-0.75,2021_May_17_1305,color_judgement_and_subjective_perception,2020.2.10,59.92403681561325,
2,0.35,testing,1000,1,,,,,,,,,0,0,0,0,8,0,32,2,,,,,377.65336506600033,None,d,0.8708113370003048,377.73771059200044,None,377.1532161410005,377.56993386700015,378.63731048000045,379.1376480000008,378.63731048000045,None,0,0,37,,,2,001,exponential,rgby,0.35-0.75,2021_May_17_1305,color_judgement_and_subjective_perception,2020.2.10,59.92403681561325,
1,0.35,testing,1000,1,,,,,,,,,0,0,0,0,8,1,33,1,,,,,379.7378099030002,None,j,0.8025539030004438,379.83792528899994,None,379.2374770310007,379.65457149900067,380.67113688600057,381.17123658500077,380.67113688600057,None,0,38,0,,,2,001,exponential,rgby,0.35-0.75,2021_May_17_1305,color_judgement_and_subjective_perception,2020.2.10,59.92403681561325,
3,0.35,testing,1000,1,,,,,,,,,0,0,0,0,8,2,34,3,,,,,381.7714066340004,None,f,0.5050852740005212,381.8714254860006,None,381.2711945310002,381.68798370700006,382.40470578200075,382.889093195,382.40470578200075,None,55,55,0,,,2,001,exponential,rgby,0.35-0.75,2021_May_17_1305,color_judgement_and_subjective_perception,2020.2.10,59.92403681561325,
0,0.35,testing,1000,1,,,,,,,,,0,0,0,0,8,3,35,0,,,,,383.48905780900077,None,d,0.5714050560000032,383.58911145599996,None,382.98909565100075,383.4058577800006,384.1890161500005,384.68943118900006,384.1890161500005,None,40,13,0,,,2,001,exponential,rgby,0.35-0.75,2021_May_17_1305,color_judgement_and_subjective_perception,2020.2.10,59.92403681561325,
2,0.35,testing,1000,1,,,,,,,,,0,0,0,0,9,0,36,2,,,,,385.2895027580007,None,j,0.570877094000025,385.3896131350002,None,384.7894195610006,385.2062511620006,385.9893244070008,386.4895402840002,385.9893244070008,None,0,0,38,,,2,001,exponential,rgby,0.35-0.75,2021_May_17_1305,color_judgement_and_subjective_perception,2020.2.10,59.92403681561325,
0,0.35,testing,1000,1,,,,,,,,,0,0,0,0,9,1,37,0,,,,,387.08970149500055,None,d,0.6507753249998132,387.18972675400073,None,386.5895771020005,387.00636678000046,387.8572360240005,388.3573510060005,387.8572360240005,None,37,12,0,,,2,001,exponential,rgby,0.35-0.75,2021_May_17_1305,color_judgement_and_subjective_perception,2020.2.10,59.92403681561325,
3,0.35,testing,1000,1,,,,,,,,,0,0,0,0,9,2,38,3,,,,,388.9573374470001,None,k,0.6872613429995909,389.05722515900015,None,388.4573402620008,388.8741347510004,389.77393582400055,390.2742818650004,389.77393582400055,None,54,54,0,,,2,001,exponential,rgby,0.35-0.75,2021_May_17_1305,color_judgement_and_subjective_perception,2020.2.10,59.92403681561325,
1,0.35,testing,1000,1,,,,,,,,,0,0,0,0,9,3,39,1,,,,,390.8743503320002,None,j,0.585871397000119,390.97459335500025,None,390.37436471,390.791194763,391.59099460000016,392.09134786600043,391.59099460000016,None,0,35,0,,,2,001,exponential,rgby,0.35-0.75,2021_May_17_1305,color_judgement_and_subjective_perception,2020.2.10,59.92403681561325,
3,0.35,testing,1000,1,,,,,,,,,0,0,0,0,10,0,40,3,,,,,392.6914630780002,None,f,0.7449266969997552,392.7755585720006,None,392.191183594,392.6080774540005,393.54222252,394.0425077780001,393.54222252,None,51,51,0,,,2,001,exponential,rgby,0.35-0.75,2021_May_17_1305,color_judgement_and_subjective_perception,2020.2.10,59.92403681561325,
0,0.35,testing,1000,1,,,,,,,,,0,0,0,0,10,1,41,0,,,,,394.6412050460003,None,None,-1,394.7258970390003,None,394.1423449270005,394.559297799,395.5926330080001,396.02499231,395.5926330080001,None,32,11,0,,,2,001,exponential,rgby,0.35-0.75,2021_May_17_1305,color_judgement_and_subjective_perception,2020.2.10,59.92403681561325,
2,0.35,testing,1000,1,,,,,,,,,0,0,0,0,10,2,42,2,,,,,396.6261322090004,None,d,0.6502713059999223,396.7261752610002,None,396.12608274800004,396.54282290300034,397.40958670800046,397.89383225800066,397.40958670800046,None,0,0,33,,,2,001,exponential,rgby,0.35-0.75,2021_May_17_1305,color_judgement_and_subjective_perception,2020.2.10,59.92403681561325,
1,0.35,testing,1000,1,,,,,,,,,0,0,0,0,10,3,43,1,,,,,398.49388605400054,None,f,0.7425905350000903,398.5939009780004,None,397.99394464800025,398.4104669770004,399.3605480870001,399.8609607600001,399.3605480870001,None,0,36,0,,,2,001,exponential,rgby,0.35-0.75,2021_May_17_1305,color_judgement_and_subjective_perception,2020.2.10,59.92403681561325,
3,0.35,testing,1000,1,,,,,,,,,0,0,0,0,11,0,44,3,,,,,400.460960808,None,k,0.6634654709996539,400.5610460630005,None,399.96071947100063,400.37774068100043,401.24417612900015,401.744398154,401.24417612900015,None,52,52,0,,,2,001,exponential,rgby,0.35-0.75,2021_May_17_1305,color_judgement_and_subjective_perception,2020.2.10,59.92403681561325,
2,0.35,testing,1000,1,,,,,,,,,0,0,0,0,11,1,45,2,,,,,402.3445331620005,None,j,0.627908784000283,402.44460361000074,None,401.84432188400024,402.26123613600066,403.095239837,403.5955647590008,403.095239837,None,0,0,33,,,2,001,exponential,rgby,0.35-0.75,2021_May_17_1305,color_judgement_and_subjective_perception,2020.2.10,59.92403681561325,
1,0.35,testing,1000,1,,,,,,,,,0,0,0,0,11,2,46,1,,,,,404.19567170900064,None,f,0.6409265640004378,404.29556473499997,None,403.6954430860005,404.1122461450004,404.9623194530004,405.4626346110008,404.9623194530004,None,0,32,0,,,2,001,exponential,rgby,0.35-0.75,2021_May_17_1305,color_judgement_and_subjective_perception,2020.2.10,59.92403681561325,
0,0.35,testing,1000,1,,,,,,,,,0,0,0,0,11,3,47,0,,,,,406.06246703000033,None,d,0.7579039619995456,406.16259083500063,None,405.5624216900005,405.9792216700007,406.945899673,407.4462017100004,406.945899673,None,29,10,0,,,2,001,exponential,rgby,0.35-0.75,2021_May_17_1305,color_judgement_and_subjective_perception,2020.2.10,59.92403681561325,
2,0.35,testing,1000,1,,,,,,,,,0,0,0,0,12,0,48,2,,,,,408.03041346700047,None,j,0.7500524790002601,408.1303571080007,None,407.5461226420002,407.9471650790001,408.9136194520006,409.41383622800004,408.9136194520006,None,0,0,29,,,2,001,exponential,rgby,0.35-0.75,2021_May_17_1305,color_judgement_and_subjective_perception,2020.2.10,59.92403681561325,
0,0.35,testing,1000,1,,,,,,,,,0,0,0,0,12,1,49,0,,,,,410.01413634300025,None,j,0.7663534270004675,410.11415418700017,None,409.51376401500056,409.9307017030005,410.89738249900074,411.3976253990004,410.89738249900074,None,26,9,0,,,2,001,exponential,rgby,0.35-0.75,2021_May_17_1305,color_judgement_and_subjective_perception,2020.2.10,59.92403681561325,
1,0.35,testing,1000,1,,,,,,,,,0,0,0,0,12,2,50,1,,,,,411.9976630710007,None,f,0.6389017490000697,412.09757784700014,None,411.4975605540003,411.91447750000043,412.7532627740002,413.24873156800004,412.7532627740002,None,0,27,0,,,2,001,exponential,rgby,0.35-0.75,2021_May_17_1305,color_judgement_and_subjective_perception,2020.2.10,59.92403681561325,
3,0.35,testing,1000,1,,,,,,,,,0,0,0,0,12,3,51,3,,,,,413.8487272120001,None,None,-1,413.94877706400075,None,413.3484908110004,413.76540702700004,414.848653389,415.3491632580008,414.848653389,None,44,44,0,,,2,001,exponential,rgby,0.35-0.75,2021_May_17_1305,color_judgement_and_subjective_perception,2020.2.10,59.92403681561325,
3,0.35,testing,1000,1,,,,,,,,,0,0,0,0,13,0,52,3,,,,,415.9490486500008,None,k,0.4556580490007036,416.04883080500076,None,415.44868489800047,415.8656911050002,416.53227748100016,417.03257881800073,416.53227748100016,None,42,42,0,,,2,001,exponential,rgby,0.35-0.75,2021_May_17_1305,color_judgement_and_subjective_perception,2020.2.10,59.92403681561325,
1,0.35,testing,1000,1,,,,,,,,,0,0,0,0,13,1,53,1,,,,,417.6326789430004,None,j,0.7089819689999786,417.73151495300044,None,417.132492232,417.54942101899996,418.46669148599995,418.96694703899993,418.46669148599995,None,0,23,0,,,2,001,exponential,rgby,0.35-0.75,2021_May_17_1305,color_judgement_and_subjective_perception,2020.2.10,59.92403681561325,
2,0.35,testing,1000,1,,,,,,,,,0,0,0,0,13,2,54,2,,,,,419.56692369100074,None,f,0.477259566999237,419.6671562700003,None,419.06694242899994,419.48382151200076,420.1669753590004,420.66747261,420.1669753590004,None,0,0,22,,,2,001,exponential,rgby,0.35-0.75,2021_May_17_1305,color_judgement_and_subjective_perception,2020.2.10,59.92403681561325,
0,0.35,testing,1000,1,,,,,,,,,0,0,0,0,13,3,55,0,,,,,421.2673967420005,None,d,0.4892913359999511,421.36719965300017,None,420.76716941700033,421.18403628600026,421.88383726200027,422.38410773600026,421.88383726200027,None,21,7,0,,,2,001,exponential,rgby,0.35-0.75,2021_May_17_1305,color_judgement_and_subjective_perception,2020.2.10,59.92403681561325,
1,0.35,testing,1000,1,,,,,,,,,0,0,0,0,14,0,56,1,,,,,422.9683091500001,None,None,-1,423.0685246050007,None,422.4842109580004,422.8850825320005,423.9683528170008,424.46873192400017,423.9683528170008,None,0,21,0,,,2,001,exponential,rgby,0.35-0.75,2021_May_17_1305,color_judgement_and_subjective_perception,2020.2.10,59.92403681561325,
3,0.35,testing,1000,1,,,,,,,,,0,0,0,0,14,1,57,3,,,,,425.068907891,None,j,0.551622142999804,425.1688669260002,None,424.5685602040003,424.98548205299994,425.7521262620003,426.2521179340001,425.7521262620003,None,38,38,0,,,2,001,exponential,rgby,0.35-0.75,2021_May_17_1305,color_judgement_and_subjective_perception,2020.2.10,59.92403681561325,
0,0.35,testing,1000,1,,,,,,,,,0,0,0,0,14,2,58,0,,,,,426.8523073290007,None,f,0.664277576999666,426.952189824,None,426.35228098600055,426.7690594129999,427.63563902400074,428.12010745800035,427.63563902400074,None,19,6,0,,,2,001,exponential,rgby,0.35-0.75,2021_May_17_1305,color_judgement_and_subjective_perception,2020.2.10,59.92403681561325,
2,0.35,testing,1000,1,,,,,,,,,0,0,0,0,14,3,59,2,,,,,428.72002866100047,None,d,0.716269917000318,428.8202323280002,None,428.2200324920004,428.6367874010002,429.5534810910003,430.0536763300006,429.5534810910003,None,0,0,22,,,2,001,exponential,rgby,0.35-0.75,2021_May_17_1305,color_judgement_and_subjective_perception,2020.2.10,59.92403681561325,
1,0.35,testing,1000,1,,,,,,,,,0,0,0,0,15,0,60,1,,,,,430.65375241700076,None,None,-1,430.7536776380002,None,430.15368644800037,430.570478695,431.6537402370004,432.15398787699996,431.6537402370004,None,0,22,0,,,2,001,exponential,rgby,0.35-0.75,2021_May_17_1305,color_judgement_and_subjective_perception,2020.2.10,59.92403681561325,
0,0.35,testing,1000,1,,,,,,,,,0,0,0,0,15,1,61,0,,,,,432.7455873050003,None,k,0.7938990270004069,432.83849292000014,None,432.25394062800024,432.6707576130002,433.6550303110007,434.1551168210008,433.6550303110007,None,21,7,0,,,2,001,exponential,rgby,0.35-0.75,2021_May_17_1305,color_judgement_and_subjective_perception,2020.2.10,59.92403681561325,
2,0.35,testing,1000,1,,,,,,,,,0,0,0,0,15,2,62,2,,,,,434.75536227200064,None,j,0.7450438410005518,434.855459976,None,434.25489256400033,434.6717727720006,435.6220551610004,436.12220291300036,435.6220551610004,None,0,0,26,,,2,001,exponential,rgby,0.35-0.75,2021_May_17_1305,color_judgement_and_subjective_perception,2020.2.10,59.92403681561325,
3,0.35,testing,1000,1,,,,,,,,,0,0,0,0,15,3,63,3,,,,,436.72218381900075,None,k,0.6982562079992931,436.82224749800025,None,436.22210910800004,436.63889498000026,437.5390670380002,438.0232413290005,437.5390670380002,None,43,43,0,,,2,001,exponential,rgby,0.35-0.75,2021_May_17_1305,color_judgement_and_subjective_perception,2020.2.10,59.92403681561325,
1,0.35,testing,1000,1,,,,,,,,,0,0,0,0,16,0,64,1,,,,,438.6233513870002,None,f,0.7491306560004887,438.7233606630007,None,438.12319331900017,438.53990160300054,439.4899471610006,439.99019289900025,439.4899471610006,None,0,25,0,,,2,001,exponential,rgby,0.35-0.75,2021_May_17_1305,color_judgement_and_subjective_perception,2020.2.10,59.92403681561325,
0,0.35,testing,1000,1,,,,,,,,,0,0,0,0,16,1,65,0,,,,,440.59038317500017,None,d,0.7740805240000554,440.69041159600056,None,440.09029520200056,440.5070576420003,441.4902891840002,441.99050942400027,441.4902891840002,None,22,7,0,,,2,001,exponential,rgby,0.35-0.75,2021_May_17_1305,color_judgement_and_subjective_perception,2020.2.10,59.92403681561325,
3,0.35,testing,1000,1,,,,,,,,,0,0,0,0,16,2,66,3,,,,,442.5906117780005,None,None,-1,442.69056589400043,None,442.090391617,442.50727035,443.5747047650002,444.0750206299999,443.5747047650002,None,39,39,0,,,2,001,exponential,rgby,0.35-0.75,2021_May_17_1305,color_judgement_and_subjective_perception,2020.2.10,59.92403681561325,
2,0.35,testing,1000,1,,,,,,,,,0,0,0,0,16,3,67,2,,,,,444.675032698,None,f,0.6334026840004299,444.77512894400024,None,444.1748461520001,444.59163760200045,445.4250596840002,445.92514854300043,445.4250596840002,None,0,0,22,,,2,001,exponential,rgby,0.35-0.75,2021_May_17_1305,color_judgement_and_subjective_perception,2020.2.10,59.92403681561325,
1,0.35,testing,1000,1,,,,,,,,,0,0,0,0,17,0,68,1,,,,,446.52537175,None,j,0.4391807099991638,446.6253090200007,None,446.02515057000073,446.44196912999996,447.09199730399996,447.5920795460006,447.09199730399996,None,0,20,0,,,2,001,exponential,rgby,0.35-0.75,2021_May_17_1305,color_judgement_and_subjective_perception,2020.2.10,59.92403681561325,
2,0.35,testing,1000,1,,,,,,,,,0,0,0,0,17,1,69,2,,,,,448.176440278,None,k,0.5480503120006688,448.27644423400034,None,447.69204584,448.09321589699994,448.84313521400054,449.34322013100063,448.84313521400054,None,0,0,21,,,2,001,exponential,rgby,0.35-0.75,2021_May_17_1305,color_judgement_and_subjective_perception,2020.2.10,59.92403681561325,
0,0.35,testing,1000,1,,,,,,,,,0,0,0,0,17,2,70,0,,,,,449.9433944520006,None,f,0.5250651349997497,450.0434483850004,None,449.44314850699993,449.8599815490006,450.5934036910003,451.09332602500035,450.5934036910003,None,20,7,0,,,2,001,exponential,rgby,0.35-0.75,2021_May_17_1305,color_judgement_and_subjective_perception,2020.2.10,59.92403681561325,
3,0.35,testing,1000,1,,,,,,,,,0,0,0,0,17,3,71,3,,,,,451.69341141900077,None,d,0.3910293230001116,451.79348608800046,None,451.1933558990004,451.61034972700054,452.21019541200076,452.71062671100026,452.21019541200076,None,39,39,0,,,2,001,exponential,rgby,0.35-0.75,2021_May_17_1305,color_judgement_and_subjective_perception,2020.2.10,59.92403681561325,
3,0.35,testing,1000,1,,,,,,,,,0,0,0,0,18,0,72,3,,,,,453.2948057830008,None,f,0.7017937159998837,453.3946842260002,None,452.79450818500027,453.21138363499995,454.12802515100066,454.62826641600077,454.12802515100066,None,41,41,0,,,2,001,exponential,rgby,0.35-0.75,2021_May_17_1305,color_judgement_and_subjective_perception,2020.2.10,59.92403681561325,
1,0.35,testing,1000,1,,,,,,,,,0,0,0,0,18,1,73,1,,,,,455.22840367000026,None,d,0.688065292999454,455.32843675500044,None,454.72812740100017,455.14481651200003,456.0449375950002,456.5450468530007,456.0449375950002,None,0,26,0,,,2,001,exponential,rgby,0.35-0.75,2021_May_17_1305,color_judgement_and_subjective_perception,2020.2.10,59.92403681561325,
2,0.35,testing,1000,1,,,,,,,,,0,0,0,0,18,2,74,2,,,,,457.14526178600045,None,j,0.6751383280006849,457.2453521690004,None,456.645165121,457.06192662600006,457.94604925300064,458.44632589699995,457.94604925300064,None,0,0,27,,,2,001,exponential,rgby,0.35-0.75,2021_May_17_1305,color_judgement_and_subjective_perception,2020.2.10,59.92403681561325,
0,0.35,testing,1000,1,,,,,,,,,0,0,0,0,18,3,75,0,,,,,459.04631160200006,None,d,0.6061169120002887,459.1463892720003,None,458.54611702000057,458.96290510000017,459.77972956400026,460.28010019000067,459.77972956400026,None,24,8,0,,,2,001,exponential,rgby,0.35-0.75,2021_May_17_1305,color_judgement_and_subjective_perception,2020.2.10,59.92403681561325,
3,0.35,testing,1000,1,,,,,,,,,0,0,0,0,19,0,76,3,,,,,460.8798945940007,None,k,0.7488839870002266,460.97964869299994,None,460.37985327000024,460.796719209,461.74672462000035,462.24687407000056,461.74672462000035,None,44,44,0,,,2,001,exponential,rgby,0.35-0.75,2021_May_17_1305,color_judgement_and_subjective_perception,2020.2.10,59.92403681561325,
0,0.35,testing,1000,1,,,,,,,,,0,0,0,0,19,1,77,0,,,,,462.83120094400056,None,f,0.6372577470001488,462.93123400400054,None,462.3469127170001,462.7551030610002,463.5976310550004,464.0978994140005,463.5976310550004,None,21,7,0,,,2,001,exponential,rgby,0.35-0.75,2021_May_17_1305,color_judgement_and_subjective_perception,2020.2.10,59.92403681561325,
1,0.35,testing,1000,1,,,,,,,,,0,0,0,0,19,2,78,1,,,,,464.69814093900004,None,f,0.8103430210003353,464.79817634900064,None,464.1977468570003,464.61481290200027,465.631438591,466.1315978730008,465.631438591,None,0,26,0,,,2,001,exponential,rgby,0.35-0.75,2021_May_17_1305,color_judgement_and_subjective_perception,2020.2.10,59.92403681561325,
2,0.35,testing,1000,1,,,,,,,,,0,0,0,0,19,3,79,2,,,,,466.7316587360001,None,f,0.7606202649994884,466.8317693280005,None,466.23163213000043,466.6482844580005,467.61486072500065,468.0994002140005,467.61486072500065,None,0,0,23,,,2,001,exponential,rgby,0.35-0.75,2021_May_17_1305,color_judgement_and_subjective_perception,2020.2.10,59.92403681561325,
3,0.35,testing,1000,1,,,,,,,,,0,0,0,0,20,0,80,3,,,,,468.6994950040007,None,j,0.6331244030006928,468.7993933300004,None,468.1993125910003,468.6162235670008,469.44939764600076,469.94982756600075,469.44939764600076,None,39,39,0,,,2,001,exponential,rgby,0.35-0.75,2021_May_17_1305,color_judgement_and_subjective_perception,2020.2.10,59.92403681561325,
1,0.35,testing,1000,1,,,,,,,,,0,0,0,0,20,1,81,1,,,,,470.5499267640007,None,k,0.7905704690001585,470.64992089600037,None,470.0496478900004,470.4665604210004,471.4664673650004,471.9666056650003,471.4664673650004,None,0,24,0,,,2,001,exponential,rgby,0.35-0.75,2021_May_17_1305,color_judgement_and_subjective_perception,2020.2.10,59.92403681561325,
2,0.35,testing,1000,1,,,,,,,,,0,0,0,0,20,2,82,2,,,,,472.5668120290002,None,j,0.7177902620005625,472.66669955399993,None,472.066588746,472.4835668270007,473.41763519600045,473.9177248350006,473.41763519600045,None,0,0,25,,,2,001,exponential,rgby,0.35-0.75,2021_May_17_1305,color_judgement_and_subjective_perception,2020.2.10,59.92403681561325,
0,0.35,testing,1000,1,,,,,,,,,0,0,0,0,20,3,83,0,,,,,474.51781510599994,None,None,-1,474.61786160300016,None,474.0176891020001,474.43458550500054,475.5179378460007,476.0181016380002,475.5179378460007,None,18,6,0,,,2,001,exponential,rgby,0.35-0.75,2021_May_17_1305,color_judgement_and_subjective_perception,2020.2.10,59.92403681561325,
1,0.35,testing,1000,1,,,,,,,,,0,0,0,0,21,0,84,1,,,,,476.61818591500014,None,j,0.5621657699994103,476.7182498560005,None,476.1180644260003,476.5348835530003,477.3015308410004,477.78594236000026,477.3015308410004,None,0,26,0,,,2,001,exponential,rgby,0.35-0.75,2021_May_17_1305,color_judgement_and_subjective_perception,2020.2.10,59.92403681561325,
0,0.35,testing,1000,1,,,,,,,,,0,0,0,0,21,1,85,0,,,,,478.38591234700016,None,f,0.6585955600003217,478.48591236800075,None,477.88588682499994,478.30269960200076,479.16937260100076,479.6695397120002,479.16937260100076,None,21,7,0,,,2,001,exponential,rgby,0.35-0.75,2021_May_17_1305,color_judgement_and_subjective_perception,2020.2.10,59.92403681561325,
3,0.35,testing,1000,1,,,,,,,,,0,0,0,0,21,2,86,3,,,,,480.2696690340008,None,None,-1,480.3697466580006,None,479.7693741790008,480.1861725360004,481.26959850599997,481.7699227440007,481.26959850599997,None,44,44,0,,,2,001,exponential,rgby,0.35-0.75,2021_May_17_1305,color_judgement_and_subjective_perception,2020.2.10,59.92403681561325,
2,0.35,testing,1000,1,,,,,,,,,0,0,0,0,21,3,87,2,,,,,482.36990890200013,None,j,0.5065497510004207,482.46996190400023,None,481.86967771700074,482.28660244100047,483.00416706300075,483.5042008090004,483.00416706300075,None,0,0,27,,,2,001,exponential,rgby,0.35-0.75,2021_May_17_1305,color_judgement_and_subjective_perception,2020.2.10,59.92403681561325,
0,0.35,testing,1000,1,,,,,,,,,0,0,0,0,22,0,88,0,,,,,484.10429170099997,None,None,-1,484.2042398370004,None,483.6041061670003,484.02100348300064,485.10438453700044,485.60473016300057,485.10438453700044,None,23,8,0,,,2,001,exponential,rgby,0.35-0.75,2021_May_17_1305,color_judgement_and_subjective_perception,2020.2.10,59.92403681561325,
3,0.35,testing,1000,1,,,,,,,,,0,0,0,0,22,1,89,3,,,,,486.2045198380001,None,j,0.6640126539996345,486.30448812100076,None,485.70440569900074,486.1213260880004,486.9879410270005,487.48816985100075,486.9879410270005,None,46,46,0,,,2,001,exponential,rgby,0.35-0.75,2021_May_17_1305,color_judgement_and_subjective_perception,2020.2.10,59.92403681561325,
2,0.35,testing,1000,1,,,,,,,,,0,0,0,0,22,2,90,2,,,,,488.0724261610003,None,f,0.5958716850000201,488.17262943400056,None,487.58817203700073,487.98921050100034,488.78914456200073,489.2893224270001,488.78914456200073,None,0,0,27,,,2,001,exponential,rgby,0.35-0.75,2021_May_17_1305,color_judgement_and_subjective_perception,2020.2.10,59.92403681561325,
1,0.35,testing,1000,1,,,,,,,,,0,0,0,0,22,3,91,1,,,,,489.88946568900064,None,f,0.547117910000452,489.98940084700007,None,489.38925737299996,489.80606234100014,490.55612122100047,491.05636384600075,490.55612122100047,None,0,32,0,,,2,001,exponential,rgby,0.35-0.75,2021_May_17_1305,color_judgement_and_subjective_perception,2020.2.10,59.92403681561325,
0,0.35,testing,1000,1,,,,,,,,,0,0,0,0,23,0,92,0,,,,,491.6561839340002,None,j,0.7481917479999538,491.75632503199995,None,491.15625007700055,491.572921424,492.52302235300067,493.0073771540001,492.52302235300067,None,26,9,0,,,2,001,exponential,rgby,0.35-0.75,2021_May_17_1305,color_judgement_and_subjective_perception,2020.2.10,59.92403681561325,
1,0.35,testing,1000,1,,,,,,,,,0,0,0,0,23,1,93,1,,,,,493.60743192800055,None,j,0.6850189249998948,493.7074887610006,None,493.1072811940003,493.52412885800004,494.42399795800065,494.9243782880003,494.42399795800065,None,0,31,0,,,2,001,exponential,rgby,0.35-0.75,2021_May_17_1305,color_judgement_and_subjective_perception,2020.2.10,59.92403681561325,
2,0.35,testing,1000,1,,,,,,,,,0,0,0,0,23,2,94,2,,,,,495.5244959210004,None,j,0.7920154280000133,495.6244737920006,None,495.02435927200077,495.4411532920003,496.44104970600074,496.9412410750001,496.44104970600074,None,0,0,28,,,2,001,exponential,rgby,0.35-0.75,2021_May_17_1305,color_judgement_and_subjective_perception,2020.2.10,59.92403681561325,
3,0.35,testing,1000,1,,,,,,,,,0,0,0,0,23,3,95,3,,,,,497.5416639740006,None,k,0.7190577150004174,497.6414095380005,None,497.0411497140003,497.45803589800016,498.39204516300015,498.8923259810008,498.39204516300015,None,49,49,0,,,2,001,exponential,rgby,0.35-0.75,2021_May_17_1305,color_judgement_and_subjective_perception,2020.2.10,59.92403681561325,
2,0.35,testing,1000,1,,,,,,,,,0,0,0,0,,,,,0,0,0,2,523.3669679120003,None,j,0.6615222709997397,523.4669791000006,None,522.8668905000004,523.2835723180006,524.1512362330004,524.6503799450002,524.1512362330004,None,0,0,25,499.00455709700054,None,2,001,exponential,rgby,0.35-0.75,2021_May_17_1305,color_judgement_and_subjective_perception,2020.2.10,59.92403681561325,
0,0.35,testing,1000,1,,,,,,,,,0,0,0,0,,,,,0,1,1,0,525.2506866520007,None,j,0.5697846980001486,525.350717925,None,524.7502800740003,525.1672193130007,525.9521358400007,526.4507344140002,525.9521358400007,None,26,9,0,None,None,2,001,exponential,rgby,0.35-0.75,2021_May_17_1305,color_judgement_and_subjective_perception,2020.2.10,59.92403681561325,
0,0.35,testing,1000,1,,,,,,,,,0,0,0,0,,,,,0,2,2,0,527.0507844530002,None,f,0.6097017900001447,527.15083632,None,526.550539713,526.9673082140007,527.7812407890005,528.268373199,527.7812407890005,None,26,9,0,None,None,2,001,exponential,rgby,0.35-0.75,2021_May_17_1305,color_judgement_and_subjective_perception,2020.2.10,59.92403681561325,
2,0.35,testing,1000,1,,,,,,,,,0,0,0,0,,,,,0,3,3,2,528.868431889,None,j,0.8000541559995327,528.9684406050001,None,528.3684232790001,528.7852303090003,529.7875178760005,530.2854948520007,529.7875178760005,None,0,0,21,None,None,2,001,exponential,rgby,0.35-0.75,2021_May_17_1305,color_judgement_and_subjective_perception,2020.2.10,59.92403681561325,
2,0.35,testing,1000,1,,,,,,,,,0,0,0,0,,,,,1,0,4,2,530.8854950980003,None,j,0.7188927010001862,530.9856226070006,None,530.3853078190004,530.8023624840007,531.7354621570003,532.2357628120008,531.7354621570003,None,0,0,19,None,None,2,001,exponential,rgby,0.35-0.75,2021_May_17_1305,color_judgement_and_subjective_perception,2020.2.10,59.92403681561325,
1,0.35,testing,1000,1,,,,,,,,,0,0,0,0,,,,,1,1,5,1,532.8200823000006,None,j,0.5441902399998071,532.9201815570004,None,532.3354975390002,532.7524681410005,533.4882093100005,533.9867513150002,533.4882093100005,None,0,26,0,None,None,2,001,exponential,rgby,0.35-0.75,2021_May_17_1305,color_judgement_and_subjective_perception,2020.2.10,59.92403681561325,
0,0.35,testing,1000,1,,,,,,,,,0,0,0,0,,,,,1,2,6,0,534.5869116060003,None,None,-1,534.6869157660003,None,534.0865885450003,534.5036328800006,535.5896302300007,536.0869748260002,535.5896302300007,None,23,8,0,None,None,2,001,exponential,rgby,0.35-0.75,2021_May_17_1305,color_judgement_and_subjective_perception,2020.2.10,59.92403681561325,
3,0.35,testing,1000,1,,,,,,,,,0,0,0,0,,,,,1,3,7,3,536.6873622560006,None,None,-1,536.7872656790005,None,536.187045099,536.6038878030004,537.6872452590005,538.1717221400004,537.6872452590005,None,42,42,0,None,None,2,001,exponential,rgby,0.35-0.75,2021_May_17_1305,color_judgement_and_subjective_perception,2020.2.10,59.92403681561325,
1,0.35,testing,1000,1,,,,,,,,,0,0,0,0,,,,,2,0,8,1,538.7716590140008,None,None,-1,538.8718272720007,None,538.2714618630007,538.6882905709999,539.7717011840004,540.2719873340002,539.7717011840004,None,0,28,0,None,None,2,001,exponential,rgby,0.35-0.75,2021_May_17_1305,color_judgement_and_subjective_perception,2020.2.10,59.92403681561325,
0,0.35,testing,1000,1,,,,,,,,,0,0,0,0,,,,,2,1,9,0,540.8720418830007,None,j,0.7003754180004762,540.9720435970003,None,540.3718482740005,540.7887194690002,541.7070951320002,542.2057166930008,541.7070951320002,None,27,9,0,None,None,2,001,exponential,rgby,0.35-0.75,2021_May_17_1305,color_judgement_and_subjective_perception,2020.2.10,59.92403681561325,
0,0.35,testing,1000,1,,,,,,,,,0,0,0,0,,,,,2,2,10,0,542.7901815990008,None,d,0.526637111999662,542.8898663730006,None,542.3054351910005,542.7222223670005,543.441266756,543.9400305160007,543.441266756,None,29,10,0,None,None,2,001,exponential,rgby,0.35-0.75,2021_May_17_1305,color_judgement_and_subjective_perception,2020.2.10,59.92403681561325,
1,0.35,testing,1000,1,,,,,,,,,0,0,0,0,,,,,2,3,11,1,544.540102643,None,None,-1,544.6400749630002,None,544.0398275980006,544.456613458,545.5408170220007,546.0402874910005,545.5408170220007,None,0,30,0,None,None,2,001,exponential,rgby,0.35-0.75,2021_May_17_1305,color_judgement_and_subjective_perception,2020.2.10,59.92403681561325,
1,0.35,testing,1000,1,,,,,,,,,0,0,0,0,,,,,3,0,12,1,546.6403758860006,None,k,0.5482106930003283,546.74030416,None,546.1400512200007,546.5570262970004,547.308915822,547.7920094700003,547.308915822,None,0,32,0,None,None,2,001,exponential,rgby,0.35-0.75,2021_May_17_1305,color_judgement_and_subjective_perception,2020.2.10,59.92403681561325,
3,0.35,testing,1000,1,,,,,,,,,0,0,0,0,,,,,3,1,13,3,548.3915198320001,None,f,0.636992026000371,548.4914877000001,None,547.8913689400006,548.3081565110006,549.1581652479999,549.6583264880001,549.1581652479999,None,47,47,0,None,None,2,001,exponential,rgby,0.35-0.75,2021_May_17_1305,color_judgement_and_subjective_perception,2020.2.10,59.92403681561325,
2,0.35,testing,1000,1,,,,,,,,,0,0,0,0,,,,,3,2,14,2,550.2585931460007,None,j,0.8499708440003815,550.3585688250005,None,549.758232833,550.1753314740008,551.2276558570002,551.7252401730002,551.2276558570002,None,0,0,22,None,None,2,001,exponential,rgby,0.35-0.75,2021_May_17_1305,color_judgement_and_subjective_perception,2020.2.10,59.92403681561325,
0,0.35,testing,1000,1,,,,,,,,,0,0,0,0,,,,,3,3,15,0,552.3254730200006,None,d,0.7269617210004071,552.4255328220006,None,551.8251735010008,552.2419678220003,553.1763795500001,553.6765278890007,553.1763795500001,None,31,10,0,None,None,2,001,exponential,rgby,0.35-0.75,2021_May_17_1305,color_judgement_and_subjective_perception,2020.2.10,59.92403681561325,
0,0.35,testing,1000,1,,,,,,,,,0,0,0,0,,,,,4,0,16,0,554.2765720550005,None,d,0.8160082730000795,554.3764554530007,None,553.776165016,554.1933463610003,555.2102124440007,555.7102322570008,555.2102124440007,None,29,10,0,None,None,2,001,exponential,rgby,0.35-0.75,2021_May_17_1305,color_judgement_and_subjective_perception,2020.2.10,59.92403681561325,
0,0.35,testing,1000,1,,,,,,,,,0,0,0,0,,,,,4,1,17,0,556.3102441280007,None,d,0.7742788879995715,556.410212068,None,555.8099617510006,556.2268707120002,557.2099970530007,557.7104903770005,557.2099970530007,None,27,9,0,None,None,2,001,exponential,rgby,0.35-0.75,2021_May_17_1305,color_judgement_and_subjective_perception,2020.2.10,59.92403681561325,
2,0.35,testing,1000,1,,,,,,,,,0,0,0,0,,,,,4,2,18,2,558.2949024140007,None,d,0.6937112180003169,558.3947185200004,None,557.7982154700003,558.2113388670004,559.112994305,559.6114783790008,559.112994305,None,0,0,17,None,None,2,001,exponential,rgby,0.35-0.75,2021_May_17_1305,color_judgement_and_subjective_perception,2020.2.10,59.92403681561325,
0,0.35,testing,1000,1,,,,,,,,,0,0,0,0,,,,,4,3,19,0,560.2117141060007,None,None,-1,560.3116486150002,None,559.7113188330004,560.1282796640007,561.2126137130008,561.711713146,561.2126137130008,None,24,8,0,None,None,2,001,exponential,rgby,0.35-0.75,2021_May_17_1305,color_judgement_and_subjective_perception,2020.2.10,59.92403681561325,
0,0.35,testing,1000,1,,,,,,,,,0,0,0,0,,,,,5,0,20,0,562.3119332050001,None,j,0.6124580659998173,562.412037389,None,561.811670731,562.2285072250006,563.0478254090003,563.5461049660007,563.0478254090003,None,22,7,0,None,None,2,001,exponential,rgby,0.35-0.75,2021_May_17_1305,color_judgement_and_subjective_perception,2020.2.10,59.92403681561325,
0,0.35,testing,1000,1,,,,,,,,,0,0,0,0,,,,,5,1,21,0,564.1462542030004,None,d,0.7542719470002339,564.246261706,None,563.645942702,564.0629339300003,565.0313999960008,565.529989484,565.0313999960008,None,22,7,0,None,None,2,001,exponential,rgby,0.35-0.75,2021_May_17_1305,color_judgement_and_subjective_perception,2020.2.10,59.92403681561325,
2,0.35,testing,1000,1,,,,,,,,,0,0,0,0,,,,,5,2,22,2,566.1299415580006,None,d,0.6986114210003507,566.2299146840005,None,565.6297249270001,566.0466860200004,566.9486027920002,567.4468895080008,566.9486027920002,None,0,0,14,None,None,2,001,exponential,rgby,0.35-0.75,2021_May_17_1305,color_judgement_and_subjective_perception,2020.2.10,59.92403681561325,
0,0.35,testing,1000,1,,,,,,,,,0,0,0,0,,,,,5,3,23,0,568.0312378580002,None,d,0.7893188680000094,568.1311893380007,None,567.546776792,567.9478820930008,568.949556343,569.4480962630005,568.949556343,None,21,7,0,None,None,2,001,exponential,rgby,0.35-0.75,2021_May_17_1305,color_judgement_and_subjective_perception,2020.2.10,59.92403681561325,
0,0.35,testing,1000,1,,,,,,,,,0,0,0,0,,,,,6,0,24,0,570.0481774650007,None,None,-1,570.1481822630003,None,569.5478624960006,569.964763553,571.0489683080004,571.5482306600006,571.0489683080004,None,19,6,0,None,None,2,001,exponential,rgby,0.35-0.75,2021_May_17_1305,color_judgement_and_subjective_perception,2020.2.10,59.92403681561325,
3,0.35,testing,1000,1,,,,,,,,,0,0,0,0,,,,,6,1,25,3,572.1484456300004,None,None,-1,572.2482685620007,None,571.6481522600006,572.0650401160001,573.132569843,573.632570748,573.132569843,None,42,42,0,None,None,2,001,exponential,rgby,0.35-0.75,2021_May_17_1305,color_judgement_and_subjective_perception,2020.2.10,59.92403681561325,
2,0.35,testing,1000,1,,,,,,,,,0,0,0,0,,,,,6,2,26,2,574.2328455300003,None,d,0.6518492169998353,574.3326718750004,None,573.7324127450001,574.149373358,575.0180012890005,575.5164471530006,575.0180012890005,None,0,0,13,None,None,2,001,exponential,rgby,0.35-0.75,2021_May_17_1305,color_judgement_and_subjective_perception,2020.2.10,59.92403681561325,
1,0.35,testing,1000,1,,,,,,,,,0,0,0,0,,,,,6,3,27,1,576.1165418950004,None,f,0.5120150630000353,576.216511652,None,575.616256579,576.0331368100005,576.7513581630001,577.249931075,576.7513581630001,None,0,30,0,None,None,2,001,exponential,rgby,0.35-0.75,2021_May_17_1305,color_judgement_and_subjective_perception,2020.2.10,59.92403681561325,
2,0.35,testing,1000,1,,,,,,,,,0,0,0,0,,,,,7,0,28,2,577.8343657100004,None,d,0.44217848899916135,577.9343424910003,None,577.3498267080004,577.7667075590007,578.4029906570004,578.9010104940007,578.4029906570004,None,0,0,14,None,None,2,001,exponential,rgby,0.35-0.75,2021_May_17_1305,color_judgement_and_subjective_perception,2020.2.10,59.92403681561325,
1,0.35,testing,1000,1,,,,,,,,,0,0,0,0,,,,,7,1,29,1,579.5010841000003,None,f,0.41534636300002603,579.601104374,None,579.0006803240003,579.4178560670007,580.0362296890007,580.534772037,580.0362296890007,None,0,31,0,None,None,2,001,exponential,rgby,0.35-0.75,2021_May_17_1305,color_judgement_and_subjective_perception,2020.2.10,59.92403681561325,
3,0.35,testing,1000,1,,,,,,,,,0,0,0,0,,,,,7,2,30,3,581.1349156530005,None,f,0.581706807000046,581.2348146350005,None,580.6345260940006,581.0514095490007,581.8363750050003,582.3350578449999,581.8363750050003,None,44,44,0,None,None,2,001,exponential,rgby,0.35-0.75,2021_May_17_1305,color_judgement_and_subjective_perception,2020.2.10,59.92403681561325,
1,0.35,testing,1000,1,,,,,,,,,0,0,0,0,,,,,7,3,31,1,582.9192359850003,None,j,0.5972350649999498,583.0192778400005,None,582.4348204920007,582.8360355940004,583.6358485310002,584.1360027150004,583.6358485310002,None,0,28,0,None,None,2,001,exponential,rgby,0.35-0.75,2021_May_17_1305,color_judgement_and_subjective_perception,2020.2.10,59.92403681561325,
0,0.35,testing,1000,1,,,,,,,,,0,0,0,0,,,,,8,0,32,0,584.7359811320002,None,k,0.5083809769994332,584.8361239510004,None,584.2358885809999,584.6528112770002,585.369459603,585.8697004590003,585.369459603,None,18,6,0,None,None,2,001,exponential,rgby,0.35-0.75,2021_May_17_1305,color_judgement_and_subjective_perception,2020.2.10,59.92403681561325,
0,0.35,testing,1000,1,,,,,,,,,0,0,0,0,,,,,8,1,33,0,586.4696747240005,None,j,0.5267939239993211,586.5696839360007,None,585.9694890150004,586.3863635690004,587.1195889270002,587.6200973130008,587.1195889270002,None,20,7,0,None,None,2,001,exponential,rgby,0.35-0.75,2021_May_17_1305,color_judgement_and_subjective_perception,2020.2.10,59.92403681561325,
0,0.35,testing,1000,1,,,,,,,,,0,0,0,0,,,,,8,2,34,0,588.2041910240005,None,f,0.3763138099993739,588.3041756080002,None,587.7196066570004,588.1206796860006,588.704082489,589.204267184,588.704082489,None,22,7,0,None,None,2,001,exponential,rgby,0.35-0.75,2021_May_17_1305,color_judgement_and_subjective_perception,2020.2.10,59.92403681561325,
1,0.35,testing,1000,1,,,,,,,,,0,0,0,0,,,,,8,3,35,1,589.8043686370002,None,d,0.42414058200029103,589.9043680740006,None,589.3040134970006,589.720979914,590.3544430450002,590.8546586530001,590.3544430450002,None,0,31,0,None,None,2,001,exponential,rgby,0.35-0.75,2021_May_17_1305,color_judgement_and_subjective_perception,2020.2.10,59.92403681561325,
3,0.35,testing,1000,1,,,,,,,,,0,0,0,0,,,,,9,0,36,3,591.4547376130004,None,f,0.49383315299928654,591.5546451320006,None,590.9543286390008,591.3712987140007,592.0712446930002,592.5715195410003,592.0712446930002,None,49,49,0,None,None,2,001,exponential,rgby,0.35-0.75,2021_May_17_1305,color_judgement_and_subjective_perception,2020.2.10,59.92403681561325,
3,0.35,testing,1000,1,,,,,,,,,0,0,0,0,,,,,9,1,37,3,593.1558768930008,None,f,0.5606606880000982,593.255746459,None,592.6712391250003,593.0724230700007,593.8389294540002,594.3394590710004,593.8389294540002,None,51,51,0,None,None,2,001,exponential,rgby,0.35-0.75,2021_May_17_1305,color_judgement_and_subjective_perception,2020.2.10,59.92403681561325,
1,0.35,testing,1000,1,,,,,,,,,0,0,0,0,,,,,9,2,38,1,594.9393224470004,None,None,-1,595.0394379960007,None,594.4390702430001,594.8560149710001,595.9402666410006,596.4395972259999,595.9402666410006,None,0,35,0,None,None,2,001,exponential,rgby,0.35-0.75,2021_May_17_1305,color_judgement_and_subjective_perception,2020.2.10,59.92403681561325,
0,0.35,testing,1000,1,,,,,,,,,0,0,0,0,,,,,9,3,39,0,597.0397669330005,None,j,0.8208399079994706,597.1396818920002,None,596.5393937620001,596.9562163740002,597.9923696160004,598.4907234580005,597.9923696160004,None,28,9,0,None,None,2,001,exponential,rgby,0.35-0.75,2021_May_17_1305,color_judgement_and_subjective_perception,2020.2.10,59.92403681561325,
3,0.35,testing,1000,1,,,,,,,,,0,0,0,0,,,,,10,0,40,3,599.0908393050004,None,k,0.6656373220002934,599.1908381890007,None,598.5904916730005,599.0074808100007,599.8762940490005,600.3744051060003,599.8762940490005,None,55,55,0,None,None,2,001,exponential,rgby,0.35-0.75,2021_May_17_1305,color_judgement_and_subjective_perception,2020.2.10,59.92403681561325,
3,0.35,testing,1000,1,,,,,,,,,0,0,0,0,,,,,10,1,41,3,600.9744364830003,None,k,0.48609982499965554,601.0744088970005,None,600.4742218270003,600.891074784,601.5910403110001,602.0911579020003,601.5910403110001,None,57,57,0,None,None,2,001,exponential,rgby,0.35-0.75,2021_May_17_1305,color_judgement_and_subjective_perception,2020.2.10,59.92403681561325,
3,0.35,testing,1000,1,,,,,,,,,0,0,0,0,,,,,10,2,42,3,602.6913483070002,None,k,0.42641643800016027,602.7900761610008,None,602.1910718060008,602.6079008400002,603.2419727250008,603.7422837450003,603.2419727250008,None,55,55,0,None,None,2,001,exponential,rgby,0.35-0.75,2021_May_17_1305,color_judgement_and_subjective_perception,2020.2.10,59.92403681561325,
3,0.35,testing,1000,1,,,,,,,,,0,0,0,0,,,,,10,3,43,3,604.342221285,None,k,0.5668810540000777,604.4336349040004,None,603.8420043310007,604.2590390660007,605.0257404880003,605.5259961690008,605.0257404880003,None,53,53,0,None,None,2,001,exponential,rgby,0.35-0.75,2021_May_17_1305,color_judgement_and_subjective_perception,2020.2.10,59.92403681561325,
1,0.35,testing,1000,1,,,,,,,,,0,0,0,0,,,,,11,0,44,1,606.0278478360005,None,None,-1,606.0913741940003,None,605.6258321220002,605.9760344590004,606.8264330530001,607.3263101190005,606.8264330530001,None,0,36,0,None,None,2,001,exponential,rgby,0.35-0.75,2021_May_17_1305,color_judgement_and_subjective_perception,2020.2.10,59.92403681561325,
1,0.35,testing,1000,1,,,,,,,,,0,0,0,0,,,,,11,1,45,1,607.9105578280005,None,f,0.3979311659995801,608.0105671540005,None,607.4260297670007,607.8271890430005,608.4289268890006,608.927190376,608.4289268890006,None,0,36,0,None,None,2,001,exponential,rgby,0.35-0.75,2021_May_17_1305,color_judgement_and_subjective_perception,2020.2.10,59.92403681561325,
3,0.35,testing,1000,1,,,,,,,,,0,0,0,0,,,,,11,2,46,3,609.5274253060006,None,k,0.6210599579999325,609.627419126,None,609.0270213600006,609.4439639430002,610.277456756,610.7776994900005,610.277456756,None,49,49,0,None,None,2,001,exponential,rgby,0.35-0.75,2021_May_17_1305,color_judgement_and_subjective_perception,2020.2.10,59.92403681561325,
2,0.35,testing,1000,1,,,,,,,,,0,0,0,0,,,,,11,3,47,2,611.3776072340006,None,d,0.6828764759993646,611.4776024070006,None,610.8774709620002,611.2944762100005,612.1798928390008,612.6778270160003,612.1798928390008,None,0,0,18,None,None,2,001,exponential,rgby,0.35-0.75,2021_May_17_1305,color_judgement_and_subjective_perception,2020.2.10,59.92403681561325,
3,0.35,testing,1000,1,,,,,,,,,0,0,0,0,,,,,12,0,48,3,613.2619571650002,None,k,0.6783385389999239,613.3621410190008,None,612.7775584250003,613.1787737200002,614.0636971960002,614.5622503450004,614.0636971960002,None,46,46,0,None,None,2,001,exponential,rgby,0.35-0.75,2021_May_17_1305,color_judgement_and_subjective_perception,2020.2.10,59.92403681561325,
2,0.35,testing,1000,1,,,,,,,,,0,0,0,0,,,,,12,1,49,2,615.1623648210007,None,f,0.8019674770002894,615.2625403190004,None,614.6620327540004,615.0791326410008,616.0974482420006,616.5959144340004,616.0974482420006,None,0,0,17,None,None,2,001,exponential,rgby,0.35-0.75,2021_May_17_1305,color_judgement_and_subjective_perception,2020.2.10,59.92403681561325,
1,0.35,testing,1000,1,,,,,,,,,0,0,0,0,,,,,12,2,50,1,617.1959631920008,None,f,0.46459802799927274,617.2959119180005,None,616.6957697810003,617.1126752290002,617.7808546660008,618.2637247520006,617.7808546660008,None,0,30,0,None,None,2,001,exponential,rgby,0.35-0.75,2021_May_17_1305,color_judgement_and_subjective_perception,2020.2.10,59.92403681561325,
0,0.35,testing,1000,1,,,,,,,,,0,0,0,0,,,,,12,3,51,0,618.8638636969999,None,d,0.5246596580000187,618.9638079870001,None,618.3635874300007,618.7803170530005,619.5136245930007,620.0138933510007,619.5136245930007,None,21,7,0,None,None,2,001,exponential,rgby,0.35-0.75,2021_May_17_1305,color_judgement_and_subjective_perception,2020.2.10,59.92403681561325,
0,0.35,testing,1000,1,,,,,,,,,0,0,0,0,,,,,13,0,52,0,620.6141038170008,None,d,0.566490543999862,620.7140059390003,None,620.1137210260003,620.5307353830003,621.2978141359999,621.7974759630006,621.2978141359999,None,19,6,0,None,None,2,001,exponential,rgby,0.35-0.75,2021_May_17_1305,color_judgement_and_subjective_perception,2020.2.10,59.92403681561325,
2,0.35,testing,1000,1,,,,,,,,,0,0,0,0,,,,,13,1,53,2,622.3976221470002,None,d,0.6147324339999614,622.4977682960007,None,621.8974517240003,622.3142129940006,623.1332268730002,623.6319188400003,623.1332268730002,None,0,0,14,None,None,2,001,exponential,rgby,0.35-0.75,2021_May_17_1305,color_judgement_and_subjective_perception,2020.2.10,59.92403681561325,
1,0.35,testing,1000,1,,,,,,,,,0,0,0,0,,,,,13,2,54,1,624.2319944340006,None,j,0.5403975589997572,624.3321120990004,None,623.7316910400004,624.14876422,624.8987700950001,625.398951274,624.8987700950001,None,0,25,0,None,None,2,001,exponential,rgby,0.35-0.75,2021_May_17_1305,color_judgement_and_subjective_perception,2020.2.10,59.92403681561325,
3,0.35,testing,1000,1,,,,,,,,,0,0,0,0,,,,,13,3,55,3,625.9989058670008,None,f,0.5815395990002798,626.0989645720001,None,625.4988491990007,625.915715485,626.699060633,627.1990974720002,626.699060633,None,38,38,0,None,None,2,001,exponential,rgby,0.35-0.75,2021_May_17_1305,color_judgement_and_subjective_perception,2020.2.10,59.92403681561325,
3,0.35,testing,1000,1,,,,,,,,,0,0,0,0,,,,,14,0,56,3,627.7978678600002,None,f,0.48507332999997743,627.8834166830002,None,627.2990707590006,627.7159001810005,628.4002553930004,628.9001919150005,628.4002553930004,None,38,38,0,None,None,2,001,exponential,rgby,0.35-0.75,2021_May_17_1305,color_judgement_and_subjective_perception,2020.2.10,59.92403681561325,
3,0.35,testing,1000,1,,,,,,,,,0,0,0,0,,,,,14,1,57,3,629.5002596210006,None,k,0.7762187609996545,629.6002735080001,None,629.0000293400008,629.4170701590001,630.4019825120004,630.9006742480005,630.4019825120004,None,38,38,0,None,None,2,001,exponential,rgby,0.35-0.75,2021_May_17_1305,color_judgement_and_subjective_perception,2020.2.10,59.92403681561325,
2,0.35,testing,1000,1,,,,,,,,,0,0,0,0,,,,,14,2,58,2,631.5006264760004,None,j,0.6078895319997173,631.6006014000004,None,631.0003796990004,631.417371132,632.233964819,632.7341539600002,632.233964819,None,0,0,14,None,None,2,001,exponential,rgby,0.35-0.75,2021_May_17_1305,color_judgement_and_subjective_perception,2020.2.10,59.92403681561325,
1,0.35,testing,1000,1,,,,,,,,,0,0,0,0,,,,,14,3,59,1,633.3184833510004,None,f,0.29391448000023956,633.4185101870007,None,632.8222467780006,633.2350102780001,633.734971027,634.2352757590006,633.734971027,None,0,23,0,None,None,2,001,exponential,rgby,0.35-0.75,2021_May_17_1305,color_judgement_and_subjective_perception,2020.2.10,59.92403681561325,
1,0.35,testing,1000,1,,,,,,,,,0,0,0,0,,,,,15,0,60,1,634.8350975580006,None,d,0.48915604400008306,634.9353562250008,None,634.3350004580006,634.7518389060006,635.4536578870002,635.9521840550005,635.4536578870002,None,0,21,0,None,None,2,001,exponential,rgby,0.35-0.75,2021_May_17_1305,color_judgement_and_subjective_perception,2020.2.10,59.92403681561325,
3,0.35,testing,1000,1,,,,,,,,,0,0,0,0,,,,,15,1,61,3,636.5521691000004,None,f,0.3882259570000315,636.6522633150007,None,636.051795808,636.4688501119999,637.0688075040007,637.568786416,637.0688075040007,None,33,33,0,None,None,2,001,exponential,rgby,0.35-0.75,2021_May_17_1305,color_judgement_and_subjective_perception,2020.2.10,59.92403681561325,
1,0.35,testing,1000,1,,,,,,,,,0,0,0,0,,,,,15,2,62,1,638.1531977560007,None,j,0.7313877590004267,638.253132924,None,637.6688446900007,638.069973697,639.0031958210002,639.5035855320002,639.0031958210002,None,0,18,0,None,None,2,001,exponential,rgby,0.35-0.75,2021_May_17_1305,color_judgement_and_subjective_perception,2020.2.10,59.92403681561325,
2,0.35,testing,1000,1,,,,,,,,,0,0,0,0,,,,,15,3,63,2,640.1038240430007,None,None,-1,640.203797483,None,639.603427991,640.0203769660002,641.1039183960002,641.6038109070005,641.1039183960002,None,0,0,12,None,None,2,001,exponential,rgby,0.35-0.75,2021_May_17_1305,color_judgement_and_subjective_perception,2020.2.10,59.92403681561325,
2,0.35,testing,1000,1,,,,,,,,,0,0,0,0,,,,,16,0,64,2,642.2039931490008,None,j,0.43255248900004517,642.3039592180003,None,641.7036931050006,642.1203610510001,642.7559300120001,643.238334396,642.7559300120001,None,0,0,14,None,None,2,001,exponential,rgby,0.35-0.75,2021_May_17_1305,color_judgement_and_subjective_perception,2020.2.10,59.92403681561325,
