color_idx_ind,target_acc,mode,response_deadline,block_number,trials_training.thisRepN,trials_training.thisTrialN,trials_training.thisN,trials_training.thisIndex,trials_training_deadline.thisRepN,trials_training_deadline.thisTrialN,trials_training_deadline.thisN,trials_training_deadline.thisIndex,blocks.thisRepN,blocks.thisTrialN,blocks.thisN,blocks.thisIndex,trials_staircase.thisRepN,trials_staircase.thisTrialN,trials_staircase.thisN,trials_staircase.thisIndex,trials.thisRepN,trials.thisTrialN,trials.thisN,trials.thisIndex,stimulus_ind.started,stimulus_ind.stopped,key_resp_ind.keys,key_resp_ind.rt,key_resp_ind.started,key_resp_ind.stopped,fixation_cross_1_ind.started,fixation_cross_1_ind.stopped,text.started,text.stopped,dummy_text.started,dummy_text.stopped,stim_ind_color_rgb_r,stim_ind_color_rgb_g,stim_ind_color_rgb_b,text_break_block.started,text_break_block.stopped,participant,session,accuracy_weighting,color_mapping,block_difficulties,date,expName,psychopyVersion,frameRate,
2,0.9,training,1000000000000,,0,0,0,0,,,,,,,,,,,,,,,,,60.763972049000586,None,j,3.39733890000025,60.8639353260005,None,60.267160257000796,60.68062691200066,64.28309377200094,64.7812138549998,64.28309377200094,None,,,,,,3,001,exponential,rgby,0.75-0.35,2021_May_17_1432,color_judgement_and_subjective_perception,2020.2.10,59.9628223303483,
0,0.9,training,1000000000000,,0,1,1,1,,,,,,,,,,,,,,,,,65.36562894800045,None,d,0.8756885519997013,65.46558135800115,None,64.88108718799958,65.28225209899938,66.36534365700027,66.86572211900057,66.36534365700027,None,,,,,,3,001,exponential,rgby,0.75-0.35,2021_May_17_1432,color_judgement_and_subjective_perception,2020.2.10,59.9628223303483,
3,0.9,training,1000000000000,,0,2,2,2,,,,,,,,,,,,,,,,,67.46590417200059,None,k,1.0393629919999512,67.56591427700005,None,66.96572683900013,67.38268156400045,68.6325885540009,69.1328130260008,68.6325885540009,None,,,,,,3,001,exponential,rgby,0.75-0.35,2021_May_17_1432,color_judgement_and_subjective_perception,2020.2.10,59.9628223303483,
0,0.9,training,1000000000000,,0,3,3,3,,,,,,,,,,,,,,,,,69.73284516500098,None,d,0.8124466400004167,69.83292133199939,None,69.23267486700024,69.64952690000064,70.66689672400025,71.16718308599957,70.66689672400025,None,,,,,,3,001,exponential,rgby,0.75-0.35,2021_May_17_1432,color_judgement_and_subjective_perception,2020.2.10,59.9628223303483,
3,0.9,training,1000000000000,,0,4,4,4,,,,,,,,,,,,,,,,,71.76721421299953,None,k,0.7139229130007152,71.86728021800081,None,71.26700675699976,71.68393327800004,72.60079481499997,73.10102747200108,72.60079481499997,None,,,,,,3,001,exponential,rgby,0.75-0.35,2021_May_17_1432,color_judgement_and_subjective_perception,2020.2.10,59.9628223303483,
2,0.9,training,1000000000000,,0,5,5,5,,,,,,,,,,,,,,,,,73.70110204500088,None,j,0.6361822389990266,73.80107862099976,None,73.20092525899963,73.61759895500109,74.4675578690003,74.96801927300112,74.4675578690003,None,,,,,,3,001,exponential,rgby,0.75-0.35,2021_May_17_1432,color_judgement_and_subjective_perception,2020.2.10,59.9628223303483,
0,0.9,training,1000000000000,,0,6,6,6,,,,,,,,,,,,,,,,,75.55213999900116,None,d,0.8651475469996512,75.65215797400015,None,75.0678080180005,75.46873482000046,76.53571891499996,77.03552047899939,76.53571891499996,None,,,,,,3,001,exponential,rgby,0.75-0.35,2021_May_17_1432,color_judgement_and_subjective_perception,2020.2.10,59.9628223303483,
3,0.9,training,1000000000000,,0,7,7,7,,,,,,,,,,,,,,,,,77.63585650599998,None,k,0.7894300070001918,77.73585378200005,None,77.1356935140011,77.55247478800084,78.55241322099937,79.05250137700023,78.55241322099937,None,,,,,,3,001,exponential,rgby,0.75-0.35,2021_May_17_1432,color_judgement_and_subjective_perception,2020.2.10,59.9628223303483,
0,0.9,training,1000000000000,,0,8,8,8,,,,,,,,,,,,,,,,,79.65271537199988,None,d,0.8044836339995527,79.75277064200054,None,79.15252837400112,79.56932374600001,80.58681403099945,81.08711093000056,80.58681403099945,None,,,,,,3,001,exponential,rgby,0.75-0.35,2021_May_17_1432,color_judgement_and_subjective_perception,2020.2.10,59.9628223303483,
2,0.9,training,1000000000000,,0,9,9,9,,,,,,,,,,,,,,,,,81.68720553999992,None,j,0.9621781470013957,81.787096045,None,81.18701298499946,81.60386418000053,82.77062992500032,83.27069483699961,82.77062992500032,None,,,,,,3,001,exponential,rgby,0.75-0.35,2021_May_17_1432,color_judgement_and_subjective_perception,2020.2.10,59.9628223303483,
3,0.9,training,1000000000000,,0,10,10,10,,,,,,,,,,,,,,,,,83.87069085000076,None,k,0.7544966989989916,83.97077324800011,None,83.37066428000071,83.78758230099993,84.7543534409997,85.23843950899936,84.7543534409997,None,,,,,,3,001,exponential,rgby,0.75-0.35,2021_May_17_1432,color_judgement_and_subjective_perception,2020.2.10,59.9628223303483,
2,0.9,training,1000000000000,,0,11,11,11,,,,,,,,,,,,,,,,,85.83860379600083,None,j,0.658721265001077,85.9385598480003,None,85.33848340800068,85.75533580900083,86.62202891000015,87.12224665600115,86.62202891000015,None,,,,,,3,001,exponential,rgby,0.75-0.35,2021_May_17_1432,color_judgement_and_subjective_perception,2020.2.10,59.9628223303483,
3,0.9,training,1000000000000,,0,12,12,12,,,,,,,,,,,,,,,,,87.7223260640003,None,k,0.734911708999789,87.82236977600041,None,87.22212852300072,87.6390573560002,88.58886335399984,89.08905843499997,88.58886335399984,None,,,,,,3,001,exponential,rgby,0.75-0.35,2021_May_17_1432,color_judgement_and_subjective_perception,2020.2.10,59.9628223303483,
2,0.9,training,1000000000000,,0,13,13,13,,,,,,,,,,,,,,,,,89.68912232000002,None,j,0.6160742560005019,89.78923198499979,None,89.18903952900109,89.60590484600107,90.4234069819995,90.9236530170001,90.4234069819995,None,,,,,,3,001,exponential,rgby,0.75-0.35,2021_May_17_1432,color_judgement_and_subjective_perception,2020.2.10,59.9628223303483,
1,0.9,training,1000000000000,,0,14,14,14,,,,,,,,,,,,,,,,,91.52367708400016,None,f,0.9015676319995691,91.62371519599947,None,91.02366626500043,91.4402429290003,92.55713751599978,93.05727003399988,92.55713751599978,None,,,,,,3,001,exponential,rgby,0.75-0.35,2021_May_17_1432,color_judgement_and_subjective_perception,2020.2.10,59.9628223303483,
0,0.9,training,1000000000000,,0,15,15,15,,,,,,,,,,,,,,,,,93.65722943500077,None,d,0.9839087459986331,93.75729303400112,None,93.15718288300013,93.57403112999964,94.77403538200087,95.25842441399982,94.77403538200087,None,,,,,,3,001,exponential,rgby,0.75-0.35,2021_May_17_1432,color_judgement_and_subjective_perception,2020.2.10,59.9628223303483,
2,0.9,training,1000000000000,,0,16,16,16,,,,,,,,,,,,,,,,,95.85837168800026,None,j,0.6789202010004374,95.95838861300035,None,95.35836131799988,95.77522829600093,96.65852356700088,97.1586420450003,96.65852356700088,None,,,,,,3,001,exponential,rgby,0.75-0.35,2021_May_17_1432,color_judgement_and_subjective_perception,2020.2.10,59.9628223303483,
1,0.9,training,1000000000000,,0,17,17,17,,,,,,,,,,,,,,,,,97.75885872500112,None,f,0.8663669819998177,97.85888741400049,None,97.25857556499977,97.67549151700041,98.74204394800108,99.24231548399985,98.74204394800108,None,,,,,,3,001,exponential,rgby,0.75-0.35,2021_May_17_1432,color_judgement_and_subjective_perception,2020.2.10,59.9628223303483,
2,0.9,training,1000000000000,,0,18,18,18,,,,,,,,,,,,,,,,,99.84252779999952,None,j,0.9347630520005623,99.942433102,None,99.34229638000033,99.75917872399987,100.90987054400102,101.41004896900085,100.90987054400102,None,,,,,,3,001,exponential,rgby,0.75-0.35,2021_May_17_1432,color_judgement_and_subjective_perception,2020.2.10,59.9628223303483,
1,0.9,training,1000000000000,,0,19,19,19,,,,,,,,,,,,,,,,,102.01033088999975,None,f,0.7510363099991082,102.11024710700076,None,101.51017818500077,101.92687266199937,102.89373305499976,103.39372858800016,102.89373305499976,None,,,,,,3,001,exponential,rgby,0.75-0.35,2021_May_17_1432,color_judgement_and_subjective_perception,2020.2.10,59.9628223303483,
3,0.9,training,1000000000000,,0,20,20,20,,,,,,,,,,,,,,,,,103.99376691399993,None,k,0.7594537830009358,104.09381519800081,None,103.4937218340001,103.91058483500092,104.8772731299996,105.36161539100067,104.8772731299996,None,,,,,,3,001,exponential,rgby,0.75-0.35,2021_May_17_1432,color_judgement_and_subjective_perception,2020.2.10,59.9628223303483,
1,0.9,training,1000000000000,,0,21,21,21,,,,,,,,,,,,,,,,,105.96167016000072,None,f,0.7596250610004063,106.06165048200091,None,105.46154430000024,105.87816635099989,106.84499139699983,107.34515953099981,106.84499139699983,None,,,,,,3,001,exponential,rgby,0.75-0.35,2021_May_17_1432,color_judgement_and_subjective_perception,2020.2.10,59.9628223303483,
0,0.9,training,1000000000000,,0,22,22,22,,,,,,,,,,,,,,,,,107.9452851269998,None,d,0.9277987900004518,108.04539905800084,None,107.44527744399966,107.86208488500051,108.99521816299966,109.49549730400031,108.99521816299966,None,,,,,,3,001,exponential,rgby,0.75-0.35,2021_May_17_1432,color_judgement_and_subjective_perception,2020.2.10,59.9628223303483,
2,0.9,training,1000000000000,,0,23,23,23,,,,,,,,,,,,,,,,,110.09575745999973,None,j,0.5771885360009037,110.18002957200042,None,109.59549575900019,110.01223423699957,110.77986300799967,111.27993045800031,110.77986300799967,None,,,,,,3,001,exponential,rgby,0.75-0.35,2021_May_17_1432,color_judgement_and_subjective_perception,2020.2.10,59.9628223303483,
1,0.9,training,1000000000000,,0,24,24,24,,,,,,,,,,,,,,,,,111.88002611500087,None,f,1.081156991998796,111.98012362200097,None,111.37996905600085,111.79687775099956,113.0803205989996,113.58032809200085,113.0803205989996,None,,,,,,3,001,exponential,rgby,0.75-0.35,2021_May_17_1432,color_judgement_and_subjective_perception,2020.2.10,59.9628223303483,
0,0.9,training,1000000000000,,0,25,25,25,,,,,,,,,,,,,,,,,114.18044815699977,None,d,1.02883636200022,114.28037056200083,None,113.68020404100025,114.09708238200074,115.33149853900068,115.83148353700017,115.33149853900068,None,,,,,,3,001,exponential,rgby,0.75-0.35,2021_May_17_1432,color_judgement_and_subjective_perception,2020.2.10,59.9628223303483,
1,0.9,training,1000000000000,,0,26,26,26,,,,,,,,,,,,,,,,,116.43149479000022,None,f,0.8737765549994947,116.53150433200062,None,115.93153964799967,116.34829820900086,117.43167440700017,117.93187556799967,117.43167440700017,None,,,,,,3,001,exponential,rgby,0.75-0.35,2021_May_17_1432,color_judgement_and_subjective_perception,2020.2.10,59.9628223303483,
3,0.9,training,1000000000000,,0,27,27,27,,,,,,,,,,,,,,,,,118.5319128150004,None,k,0.661252728999898,118.63192682599947,None,118.03190264899968,118.44855892899977,119.31519891500102,119.81547297900033,119.31519891500102,None,,,,,,3,001,exponential,rgby,0.75-0.35,2021_May_17_1432,color_judgement_and_subjective_perception,2020.2.10,59.9628223303483,
1,0.9,training,1000000000000,,0,28,28,28,,,,,,,,,,,,,,,,,120.39979782900082,None,f,0.8815056999992521,120.49976607600001,None,119.91541492800025,120.3164624660003,121.39977713600092,121.89982442899964,121.39977713600092,None,,,,,,3,001,exponential,rgby,0.75-0.35,2021_May_17_1432,color_judgement_and_subjective_perception,2020.2.10,59.9628223303483,
3,0.9,training,1000000000000,,0,29,29,29,,,,,,,,,,,,,,,,,122.50018175300102,None,k,0.6610314780009503,122.60015968799962,None,121.99994321300073,122.41676234700026,123.28341752400047,123.78352909100067,123.28341752400047,None,,,,,,3,001,exponential,rgby,0.75-0.35,2021_May_17_1432,color_judgement_and_subjective_perception,2020.2.10,59.9628223303483,
1,0.9,training,1000000000000,,0,30,30,30,,,,,,,,,,,,,,,,,124.38362858099936,None,f,0.8496257509996212,124.4836628030007,None,123.88352024300002,124.30027725000036,125.35123842900066,125.85125378399971,125.35123842900066,None,,,,,,3,001,exponential,rgby,0.75-0.35,2021_May_17_1432,color_judgement_and_subjective_perception,2020.2.10,59.9628223303483,
0,0.9,training,1000000000000,,0,31,31,31,,,,,,,,,,,,,,,,,126.45136186200034,None,d,0.7898787490012182,126.55140080800084,None,125.95130353100103,126.3680621550011,127.3681189380004,127.868476646001,127.3681189380004,None,,,,,,3,001,exponential,rgby,0.75-0.35,2021_May_17_1432,color_judgement_and_subjective_perception,2020.2.10,59.9628223303483,
3,0.9,training,1000,,,,,,0,0,0,0,,,,,,,,,,,,,133.50316350200046,None,k,0.6259621170011087,133.6033066710006,None,133.0060310789995,133.4199174919995,134.2532539240001,134.7535000959997,134.2532539240001,None,,,,,,3,001,exponential,rgby,0.75-0.35,2021_May_17_1432,color_judgement_and_subjective_perception,2020.2.10,59.9628223303483,
2,0.9,training,1000,,,,,,0,1,1,1,,,,,,,,,,,,,135.33759670200016,None,j,0.8474316519987042,135.43784269200114,None,134.85355345100106,135.25444011400032,136.30449219500042,136.80457875499997,136.30449219500042,None,,,,,,3,001,exponential,rgby,0.75-0.35,2021_May_17_1432,color_judgement_and_subjective_perception,2020.2.10,59.9628223303483,
1,0.9,training,1000,,,,,,0,2,2,2,,,,,,,,,,,,,137.40484501100036,None,f,0.5803469869988476,137.50492439499976,None,136.9046269290011,137.3214127980009,138.1048046779997,138.60484682599963,138.1048046779997,None,,,,,,3,001,exponential,rgby,0.75-0.35,2021_May_17_1432,color_judgement_and_subjective_perception,2020.2.10,59.9628223303483,
3,0.9,training,1000,,,,,,0,3,3,3,,,,,,,,,,,,,139.20501496200086,None,k,0.45221714099898236,139.30504353600008,None,138.7048592200008,139.12162381300004,139.78824027200062,140.27280825399976,139.78824027200062,None,,,,,,3,001,exponential,rgby,0.75-0.35,2021_May_17_1432,color_judgement_and_subjective_perception,2020.2.10,59.9628223303483,
2,0.9,training,1000,,,,,,0,4,4,4,,,,,,,,,,,,,140.87270285600061,None,j,0.6644881129996065,140.97278664900114,None,140.37270495099983,140.7895221100007,141.65614720300073,142.15633567000077,141.65614720300073,None,,,,,,3,001,exponential,rgby,0.75-0.35,2021_May_17_1432,color_judgement_and_subjective_perception,2020.2.10,59.9628223303483,
0,0.9,training,1000,,,,,,0,5,5,5,,,,,,,,,,,,,142.75655865599947,None,d,0.5487184550001984,142.856554547001,None,142.25635575900014,142.67316090500026,143.42311183700076,143.9232508999994,143.42311183700076,None,,,,,,3,001,exponential,rgby,0.75-0.35,2021_May_17_1432,color_judgement_and_subjective_perception,2020.2.10,59.9628223303483,
2,0.9,training,1000,,,,,,0,6,6,6,,,,,,,,,,,,,144.5232580440006,None,j,0.48591378499986604,144.6233674289997,None,144.02332340999965,144.439918864,145.1385867709996,145.62436526900092,145.1385867709996,None,,,,,,3,001,exponential,rgby,0.75-0.35,2021_May_17_1432,color_judgement_and_subjective_perception,2020.2.10,59.9628223303483,
0,0.9,training,1000,,,,,,0,7,7,7,,,,,,,,,,,,,146.22437158700086,None,d,0.5128698660009832,146.3244024100004,None,145.7244140439998,146.14094840799953,146.85772293099944,147.35798078300104,146.85772293099944,None,,,,,,3,001,exponential,rgby,0.75-0.35,2021_May_17_1432,color_judgement_and_subjective_perception,2020.2.10,59.9628223303483,
1,0.9,training,1000,,,,,,0,8,8,8,,,,,,,,,,,,,147.95805918400038,None,f,0.523223551999763,148.058054739,None,147.45793419999973,147.87493793999965,148.60794517500108,149.10812405900106,148.60794517500108,None,,,,,,3,001,exponential,rgby,0.75-0.35,2021_May_17_1432,color_judgement_and_subjective_perception,2020.2.10,59.9628223303483,
0,0.9,training,1000,,,,,,0,9,9,9,,,,,,,,,,,,,149.70833198800028,None,d,0.5411084049992496,149.80817512999965,None,149.20816094700058,149.62492426800054,150.376041634001,150.8759486809995,150.376041634001,None,,,,,,3,001,exponential,rgby,0.75-0.35,2021_May_17_1432,color_judgement_and_subjective_perception,2020.2.10,59.9628223303483,
3,0.9,training,1000,,,,,,0,10,10,10,,,,,,,,,,,,,151.47609582599944,None,k,0.5331177330008359,151.57616161700025,None,150.9759794140009,151.39268966500094,152.12606161199983,152.62625828599994,152.12606161199983,None,,,,,,3,001,exponential,rgby,0.75-0.35,2021_May_17_1432,color_judgement_and_subjective_perception,2020.2.10,59.9628223303483,
0,0.9,training,1000,,,,,,0,11,11,11,,,,,,,,,,,,,153.22636960800082,None,d,0.47099646700007725,153.32631489599953,None,152.7263455200009,153.14317092900092,153.82627365600092,154.32641391300058,153.82627365600092,None,,,,,,3,001,exponential,rgby,0.75-0.35,2021_May_17_1432,color_judgement_and_subjective_perception,2020.2.10,59.9628223303483,
1,0.9,training,1000,,,,,,0,12,12,12,,,,,,,,,,,,,154.9264802409998,None,f,0.522750113001166,155.0265308729995,None,154.42631762400015,154.84333617499942,155.5773823519994,156.07750144300007,155.5773823519994,None,,,,,,3,001,exponential,rgby,0.75-0.35,2021_May_17_1432,color_judgement_and_subjective_perception,2020.2.10,59.9628223303483,
3,0.9,training,1000,,,,,,0,13,13,13,,,,,,,,,,,,,156.67756776200076,None,k,0.4196748149988707,156.77760556400062,None,156.17756422000093,156.59419986099965,157.22766701,157.72803587599992,157.22766701,None,,,,,,3,001,exponential,rgby,0.75-0.35,2021_May_17_1432,color_judgement_and_subjective_perception,2020.2.10,59.9628223303483,
1,0.9,training,1000,,,,,,0,14,14,14,,,,,,,,,,,,,158.3278417220008,None,f,0.5453914449990407,158.42790586299998,None,157.82791465899936,158.24459982699955,158.9945011990003,159.49468843000068,158.9945011990003,None,,,,,,3,001,exponential,rgby,0.75-0.35,2021_May_17_1432,color_judgement_and_subjective_perception,2020.2.10,59.9628223303483,
2,0.9,training,1000,,,,,,0,15,15,15,,,,,,,,,,,,,160.0946906650006,None,j,0.5301626759992359,160.17911088599976,None,159.5946373400002,160.0115375860005,160.72915242400086,161.2291593000009,160.72915242400086,None,,,,,,3,001,exponential,rgby,0.75-0.35,2021_May_17_1432,color_judgement_and_subjective_perception,2020.2.10,59.9628223303483,
1,0.9,training,1000,,,,,,0,16,16,16,,,,,,,,,,,,,161.82923869099977,None,f,0.5237631349991716,161.92948789799993,None,161.32914551300019,161.74582076800107,162.479367240001,162.97951504400044,162.479367240001,None,,,,,,3,001,exponential,rgby,0.75-0.35,2021_May_17_1432,color_judgement_and_subjective_perception,2020.2.10,59.9628223303483,
0,0.9,training,1000,,,,,,0,17,17,17,,,,,,,,,,,,,163.57956322800055,None,d,0.43763585600027,163.67962518400054,None,163.07954964500095,163.49623798200082,164.1343045320009,164.56302875800066,164.1343045320009,None,,,,,,3,001,exponential,rgby,0.75-0.35,2021_May_17_1432,color_judgement_and_subjective_perception,2020.2.10,59.9628223303483,
1,0.9,training,1000,,,,,,0,18,18,18,,,,,,,,,,,,,165.1544666610007,None,f,0.757841845999792,165.24731882200103,None,164.66306654300024,165.07981166799982,166.03048242899968,166.53079998400062,166.03048242899968,None,,,,,,3,001,exponential,rgby,0.75-0.35,2021_May_17_1432,color_judgement_and_subjective_perception,2020.2.10,59.9628223303483,
2,0.9,training,1000,,,,,,0,19,19,19,,,,,,,,,,,,,167.131024024,None,j,0.47841548299948045,167.23086542500096,None,166.63063432700073,167.04752897800063,167.73092660300063,168.2311164820003,167.73092660300063,None,,,,,,3,001,exponential,rgby,0.75-0.35,2021_May_17_1432,color_judgement_and_subjective_perception,2020.2.10,59.9628223303483,
1,0.9,training,1000,,,,,,0,20,20,20,,,,,,,,,,,,,168.83117445599964,None,f,0.59390973599875,168.93122974000107,None,168.33103430899973,168.74794514799942,169.54783698900064,170.04794881499947,169.54783698900064,None,,,,,,3,001,exponential,rgby,0.75-0.35,2021_May_17_1432,color_judgement_and_subjective_perception,2020.2.10,59.9628223303483,
3,0.9,training,1000,,,,,,0,21,21,21,,,,,,,,,,,,,170.63223277900033,None,k,0.3289546710002469,170.73232077600005,None,170.14666320200013,170.54897551000067,171.08214535499974,171.58232592400054,171.08214535499974,None,,,,,,3,001,exponential,rgby,0.75-0.35,2021_May_17_1432,color_judgement_and_subjective_perception,2020.2.10,59.9628223303483,
2,0.9,training,1000,,,,,,0,22,22,22,,,,,,,,,,,,,172.18245836499955,None,f,0.39467381600115914,172.2825133360002,None,171.68229265000082,172.09915346100024,172.6991478050004,173.19936392199997,172.6991478050004,None,,,,,,3,001,exponential,rgby,0.75-0.35,2021_May_17_1432,color_judgement_and_subjective_perception,2020.2.10,59.9628223303483,
3,0.9,training,1000,,,,,,0,23,23,23,,,,,,,,,,,,,173.79935892899994,None,k,0.8497379390009883,173.89949050799987,None,173.29931919900082,173.71618091500022,174.76603023499956,175.25044054799946,174.76603023499956,None,,,,,,3,001,exponential,rgby,0.75-0.35,2021_May_17_1432,color_judgement_and_subjective_perception,2020.2.10,59.9628223303483,
1,0.9,training,1000,,,,,,0,24,24,24,,,,,,,,,,,,,175.85063948300012,None,f,0.8787960819990985,175.950512712001,None,175.3505436430005,175.76730845900056,176.85051996999937,177.35077503499997,176.85051996999937,None,,,,,,3,001,exponential,rgby,0.75-0.35,2021_May_17_1432,color_judgement_and_subjective_perception,2020.2.10,59.9628223303483,
2,0.9,training,1000,,,,,,0,25,25,25,,,,,,,,,,,,,177.95097447499938,None,None,-1,178.05096948400023,None,177.45070929699978,177.8675280080006,178.95091529899946,179.45104221099973,178.95091529899946,None,,,,,,3,001,exponential,rgby,0.75-0.35,2021_May_17_1432,color_judgement_and_subjective_perception,2020.2.10,59.9628223303483,
0,0.9,training,1000,,,,,,0,26,26,26,,,,,,,,,,,,,180.0511733910007,None,d,0.6393161910000345,180.14996728699953,None,179.55105364600058,179.96780511699944,180.81851057200038,181.3187322270005,180.81851057200038,None,,,,,,3,001,exponential,rgby,0.75-0.35,2021_May_17_1432,color_judgement_and_subjective_perception,2020.2.10,59.9628223303483,
2,0.9,training,1000,,,,,,0,27,27,27,,,,,,,,,,,,,181.9188289020003,None,j,0.6022928770016733,182.01899021099962,None,181.41866095499972,181.83562993300075,182.65241504500045,183.15245111700096,182.65241504500045,None,,,,,,3,001,exponential,rgby,0.75-0.35,2021_May_17_1432,color_judgement_and_subjective_perception,2020.2.10,59.9628223303483,
0,0.9,training,1000,,,,,,0,28,28,28,,,,,,,,,,,,,183.75251535400093,None,d,0.48058334500092315,183.85268855399954,None,183.25242767800046,183.6691419960007,184.35257528200054,184.85274036900046,184.35257528200054,None,,,,,,3,001,exponential,rgby,0.75-0.35,2021_May_17_1432,color_judgement_and_subjective_perception,2020.2.10,59.9628223303483,
2,0.9,training,1000,,,,,,0,29,29,29,,,,,,,,,,,,,185.4369740910006,None,j,0.4762525109999842,185.53698800600068,None,184.95269608099989,185.35372606000055,186.03692519300057,186.53710147700076,186.03692519300057,None,,,,,,3,001,exponential,rgby,0.75-0.35,2021_May_17_1432,color_judgement_and_subjective_perception,2020.2.10,59.9628223303483,
3,0.9,training,1000,,,,,,0,30,30,30,,,,,,,,,,,,,187.13726402900102,None,k,0.4318778619999648,187.23736755900063,None,186.63698530700094,187.05381756600036,187.68720909200056,188.18743574499968,187.68720909200056,None,,,,,,3,001,exponential,rgby,0.75-0.35,2021_May_17_1432,color_judgement_and_subjective_perception,2020.2.10,59.9628223303483,
0,0.9,training,1000,,,,,,0,31,31,31,,,,,,,,,,,,,188.7875477790003,None,d,0.5017095370003517,188.88757977200112,None,188.28753042500102,188.70411972500006,189.42077105300086,189.92104391900102,189.42077105300086,None,,,,,,3,001,exponential,rgby,0.75-0.35,2021_May_17_1432,color_judgement_and_subjective_perception,2020.2.10,59.9628223303483,
2,0.9,training,1000,,,,,,0,32,32,32,,,,,,,,,,,,,190.50529064900002,None,j,0.48807369399946765,190.6052178560003,None,190.02081982500022,190.4220264579999,191.12180459400042,191.62202193200028,191.12180459400042,None,,,,,,3,001,exponential,rgby,0.75-0.35,2021_May_17_1432,color_judgement_and_subjective_perception,2020.2.10,59.9628223303483,
1,0.9,training,1000,,,,,,0,33,33,33,,,,,,,,,,,,,192.22219364699959,None,f,0.44308271600129956,192.32218551299957,None,191.72200676099965,192.13898349900046,192.78884880199985,193.28875665099986,192.78884880199985,None,,,,,,3,001,exponential,rgby,0.75-0.35,2021_May_17_1432,color_judgement_and_subjective_perception,2020.2.10,59.9628223303483,
3,0.9,training,1000,,,,,,0,34,34,34,,,,,,,,,,,,,193.88905858600083,None,k,0.44025323599998956,193.98903385499943,None,193.3889898340003,193.80564273900018,194.45585100599965,194.9560170320001,194.45585100599965,None,,,,,,3,001,exponential,rgby,0.75-0.35,2021_May_17_1432,color_judgement_and_subjective_perception,2020.2.10,59.9628223303483,
0,0.9,training,1000,,,,,,0,35,35,35,,,,,,,,,,,,,195.54014944400114,None,d,0.5410675889997947,195.64021353799944,None,195.05588937799985,195.45691938300115,196.2067937339998,196.70705928999996,196.2067937339998,None,,,,,,3,001,exponential,rgby,0.75-0.35,2021_May_17_1432,color_judgement_and_subjective_perception,2020.2.10,59.9628223303483,
1,0.9,training,1000,,,,,,0,36,36,36,,,,,,,,,,,,,197.30721530899973,None,f,0.5660050599999522,197.40725015700082,None,196.80700963300114,197.22385634300008,197.99048339699948,198.49049415400077,197.99048339699948,None,,,,,,3,001,exponential,rgby,0.75-0.35,2021_May_17_1432,color_judgement_and_subjective_perception,2020.2.10,59.9628223303483,
3,0.9,training,1000,,,,,,0,37,37,37,,,,,,,,,,,,,199.09064731299986,None,k,0.6305771170009393,199.19068409899955,None,198.5904827960003,199.00748168100108,199.84078763599973,200.32509466699958,199.84078763599973,None,,,,,,3,001,exponential,rgby,0.75-0.35,2021_May_17_1432,color_judgement_and_subjective_perception,2020.2.10,59.9628223303483,
0,0.9,training,1000,,,,,,0,38,38,38,,,,,,,,,,,,,200.92504908999945,None,None,-1,201.02508988000045,None,200.42505656899993,200.8416717580003,201.9250685450006,202.42549101000077,201.9250685450006,None,,,,,,3,001,exponential,rgby,0.75-0.35,2021_May_17_1432,color_judgement_and_subjective_perception,2020.2.10,59.9628223303483,
3,0.9,training,1000,,,,,,0,39,39,39,,,,,,,,,,,,,203.02558049800064,None,None,-1,203.12555857900043,None,202.52538876000108,202.94223825100016,204.02549569599978,204.52567143399938,204.02549569599978,None,,,,,,3,001,exponential,rgby,0.75-0.35,2021_May_17_1432,color_judgement_and_subjective_perception,2020.2.10,59.9628223303483,
1,0.9,training,1000,,,,,,0,40,40,40,,,,,,,,,,,,,205.12581166600103,None,f,0.57119077400057,205.2100488750002,None,204.62568736200046,205.04235968400098,205.8099116329995,206.31009786300092,205.8099116329995,None,,,,,,3,001,exponential,rgby,0.75-0.35,2021_May_17_1432,color_judgement_and_subjective_perception,2020.2.10,59.9628223303483,
0,0.9,training,1000,,,,,,0,41,41,41,,,,,,,,,,,,,206.9101272480002,None,d,0.49116474199945515,207.01012476300093,None,206.4099586930006,206.82695217999935,207.5268446099999,208.02710365299936,207.5268446099999,None,,,,,,3,001,exponential,rgby,0.75-0.35,2021_May_17_1432,color_judgement_and_subjective_perception,2020.2.10,59.9628223303483,
3,0.9,training,1000,,,,,,0,42,42,42,,,,,,,,,,,,,208.62708381999983,None,k,0.4380363100008253,208.72726282400072,None,208.12705277500027,208.54371248899952,209.1937880910009,209.6940062499998,209.1937880910009,None,,,,,,3,001,exponential,rgby,0.75-0.35,2021_May_17_1432,color_judgement_and_subjective_perception,2020.2.10,59.9628223303483,
2,0.9,training,1000,,,,,,0,43,43,43,,,,,,,,,,,,,210.27818548899995,None,j,0.42696657899978163,210.37826836400018,None,209.79392346799978,210.1949376240009,210.8281567089998,211.328254905,210.8281567089998,None,,,,,,3,001,exponential,rgby,0.75-0.35,2021_May_17_1432,color_judgement_and_subjective_perception,2020.2.10,59.9628223303483,
3,0.9,training,1000,,,,,,0,44,44,44,,,,,,,,,,,,,211.92847876700034,None,k,0.43279145599990443,212.02846177399988,None,211.42839061000086,211.84509651400003,212.4785510870006,212.9786218520003,212.4785510870006,None,,,,,,3,001,exponential,rgby,0.75-0.35,2021_May_17_1432,color_judgement_and_subjective_perception,2020.2.10,59.9628223303483,
1,0.9,training,1000,,,,,,0,45,45,45,,,,,,,,,,,,,213.5785464540004,None,f,0.3504433259986399,213.67875172200002,None,213.07859064900003,213.4954194180009,214.062403463,214.54547750700112,214.062403463,None,,,,,,3,001,exponential,rgby,0.75-0.35,2021_May_17_1432,color_judgement_and_subjective_perception,2020.2.10,59.9628223303483,
0,0.9,training,1000,,,,,,0,46,46,46,,,,,,,,,,,,,215.1454043770009,None,d,0.20745322199945804,215.2298214020011,None,214.6454730759997,215.06238602899975,215.46305897000093,215.9632761770008,215.46305897000093,None,,,,,,3,001,exponential,rgby,0.75-0.35,2021_May_17_1432,color_judgement_and_subjective_perception,2020.2.10,59.9628223303483,
2,0.9,training,1000,,,,,,0,47,47,47,,,,,,,,,,,,,216.56325432199992,None,j,0.4138784280003165,216.6633962470005,None,216.06321386700074,216.47992527099996,217.0966223280011,217.5968965659995,217.0966223280011,None,,,,,,3,001,exponential,rgby,0.75-0.35,2021_May_17_1432,color_judgement_and_subjective_perception,2020.2.10,59.9628223303483,
3,0.9,training,1000,,,,,,0,48,48,48,,,,,,,,,,,,,218.19693412200104,None,k,0.3482854479989328,218.2969980680009,None,217.69683229700058,218.11365130000013,218.66348525899957,219.1637346110001,218.66348525899957,None,,,,,,3,001,exponential,rgby,0.75-0.35,2021_May_17_1432,color_judgement_and_subjective_perception,2020.2.10,59.9628223303483,
1,0.9,training,1000,,,,,,0,49,49,49,,,,,,,,,,,,,219.76389103899965,None,f,0.29355157899954065,219.86375525999938,None,219.2636370580003,219.68047305099935,220.17391639200105,220.66466685500018,220.17391639200105,None,,,,,,3,001,exponential,rgby,0.75-0.35,2021_May_17_1432,color_judgement_and_subjective_perception,2020.2.10,59.9628223303483,
3,0.9,training,1000,,,,,,0,50,50,50,,,,,,,,,,,,,221.26470576700012,None,j,0.41651688199999626,221.36475768899982,None,220.7647189069994,221.18151706200115,221.79814695499954,222.29849224200007,221.79814695499954,None,,,,,,3,001,exponential,rgby,0.75-0.35,2021_May_17_1432,color_judgement_and_subjective_perception,2020.2.10,59.9628223303483,
2,0.9,training,1000,,,,,,0,51,51,51,,,,,,,,,,,,,222.89864935600053,None,j,0.7266613629999483,222.9986081370007,None,222.3984214560005,222.8152358719999,223.74843538099958,224.24861015100032,223.74843538099958,None,,,,,,3,001,exponential,rgby,0.75-0.35,2021_May_17_1432,color_judgement_and_subjective_perception,2020.2.10,59.9628223303483,
1,0.9,training,1000,,,,,,0,52,52,52,,,,,,,,,,,,,224.84875451399967,None,f,0.520422891000635,224.94884076900053,None,224.34858480799994,224.7655843699995,225.4996186570006,225.99975610799993,225.4996186570006,None,,,,,,3,001,exponential,rgby,0.75-0.35,2021_May_17_1432,color_judgement_and_subjective_perception,2020.2.10,59.9628223303483,
3,0.9,training,1000,,,,,,0,53,53,53,,,,,,,,,,,,,226.59985950600094,None,k,0.29746435299966834,226.69980808199944,None,226.09970639600033,226.51643168900046,227.01635735700074,227.5167423060011,227.01635735700074,None,,,,,,3,001,exponential,rgby,0.75-0.35,2021_May_17_1432,color_judgement_and_subjective_perception,2020.2.10,59.9628223303483,
0,0.9,training,1000,,,,,,0,54,54,54,,,,,,,,,,,,,228.11692458000107,None,d,0.3804426839997177,228.2168367840004,None,227.61673576000067,228.0334894610005,228.61681784199936,229.11690437200014,228.61681784199936,None,,,,,,3,001,exponential,rgby,0.75-0.35,2021_May_17_1432,color_judgement_and_subjective_perception,2020.2.10,59.9628223303483,
2,0.9,training,1000,,,,,,0,55,55,55,,,,,,,,,,,,,229.71701966900036,None,j,0.348255025999606,229.81701915899976,None,229.21690181800113,229.63364575500054,230.17759500800094,230.66802532300062,230.17759500800094,None,,,,,,3,001,exponential,rgby,0.75-0.35,2021_May_17_1432,color_judgement_and_subjective_perception,2020.2.10,59.9628223303483,
3,0.9,training,1000,,,,,,0,56,56,56,,,,,,,,,,,,,231.26802597300048,None,k,0.5171971949985164,231.36799700499978,None,230.7678323270011,231.18469567000102,231.9180976560001,232.418297051001,231.9180976560001,None,,,,,,3,001,exponential,rgby,0.75-0.35,2021_May_17_1432,color_judgement_and_subjective_perception,2020.2.10,59.9628223303483,
1,0.9,training,1000,,,,,,0,57,57,57,,,,,,,,,,,,,233.0183078179998,None,f,0.3988552200007689,233.1183901660006,None,232.51825822300088,232.93503405500087,233.53493853700093,234.03513117500006,233.53493853700093,None,,,,,,3,001,exponential,rgby,0.75-0.35,2021_May_17_1432,color_judgement_and_subjective_perception,2020.2.10,59.9628223303483,
3,0.9,training,1000,,,,,,0,58,58,58,,,,,,,,,,,,,234.6353428679995,None,k,0.3659592240001075,234.7353146530004,None,234.13495850800064,234.55183806999958,235.11845017700034,235.60287744299967,235.11845017700034,None,,,,,,3,001,exponential,rgby,0.75-0.35,2021_May_17_1432,color_judgement_and_subjective_perception,2020.2.10,59.9628223303483,
2,0.9,training,1000,,,,,,0,59,59,59,,,,,,,,,,,,,236.20297682300043,None,f,0.374409629001093,236.30284693500107,None,235.70276381300027,236.11968020600034,236.7028429660004,237.20325610700093,236.7028429660004,None,,,,,,3,001,exponential,rgby,0.75-0.35,2021_May_17_1432,color_judgement_and_subjective_perception,2020.2.10,59.9628223303483,
3,0.9,training,1000,,,,,,0,60,60,60,,,,,,,,,,,,,237.8033883879998,None,k,0.30195271800039336,237.90332781600046,None,237.30318973300018,237.719953404001,238.23644404900006,238.736643835,238.23644404900006,None,,,,,,3,001,exponential,rgby,0.75-0.35,2021_May_17_1432,color_judgement_and_subjective_perception,2020.2.10,59.9628223303483,
0,0.9,training,1000,,,,,,0,61,61,61,,,,,,,,,,,,,239.33666647500104,None,d,0.39253987499978393,239.43673553000008,None,238.83664560000034,239.25353608499972,239.8534169070008,240.3376636640005,239.8534169070008,None,,,,,,3,001,exponential,rgby,0.75-0.35,2021_May_17_1432,color_judgement_and_subjective_perception,2020.2.10,59.9628223303483,
1,0.9,training,1000,,,,,,0,62,62,62,,,,,,,,,,,,,240.9378094399999,None,None,-1,241.03777881799942,None,240.43778214099984,240.8546022089995,241.93784381800106,242.43812367200007,241.93784381800106,None,,,,,,3,001,exponential,rgby,0.75-0.35,2021_May_17_1432,color_judgement_and_subjective_perception,2020.2.10,59.9628223303483,
0,0.9,training,1000,,,,,,0,63,63,63,,,,,,,,,,,,,243.03824751700085,None,d,0.371014237000054,243.13827850800044,None,242.53816441900017,242.95491926500108,243.53808236300029,244.03838675299994,243.53808236300029,None,,,,,,3,001,exponential,rgby,0.75-0.35,2021_May_17_1432,color_judgement_and_subjective_perception,2020.2.10,59.9628223303483,
0,0.9,training,1000,,,,,,0,64,64,64,,,,,,,,,,,,,244.6383298210003,None,d,0.3867674850007461,244.73851583000032,None,244.13824150999972,244.55508946600094,245.1549697600003,245.63958972399996,245.1549697600003,None,,,,,,3,001,exponential,rgby,0.75-0.35,2021_May_17_1432,color_judgement_and_subjective_perception,2020.2.10,59.9628223303483,
2,0.9,training,1000,,,,,,0,65,65,65,,,,,,,,,,,,,246.2394418240001,None,j,0.38576773299973866,246.33951524199983,None,245.7394569450007,246.15596270100104,246.75605388199983,247.2564044339997,246.75605388199983,None,,,,,,3,001,exponential,rgby,0.75-0.35,2021_May_17_1432,color_judgement_and_subjective_perception,2020.2.10,59.9628223303483,
3,0.9,training,1000,,,,,,0,66,66,66,,,,,,,,,,,,,247.8565125820005,None,k,0.3527836909997859,247.9564721959996,None,247.35635213200112,247.77312957300092,248.3397441569996,248.83984110100027,248.3397441569996,None,,,,,,3,001,exponential,rgby,0.75-0.35,2021_May_17_1432,color_judgement_and_subjective_perception,2020.2.10,59.9628223303483,
1,0.9,training,1000,,,,,,0,67,67,67,,,,,,,,,,,,,249.43994303200088,None,f,0.3212997209993773,249.54001177899954,None,248.93979056399985,249.3566003779997,249.8899686220011,250.37431180299973,249.8899686220011,None,,,,,,3,001,exponential,rgby,0.75-0.35,2021_May_17_1432,color_judgement_and_subjective_perception,2020.2.10,59.9628223303483,
0,0.9,training,1000,,,,,,0,68,68,68,,,,,,,,,,,,,250.97428444800062,None,d,0.39499372099999164,251.07430478400056,None,250.47442952200072,250.8910798220004,251.4909872650005,251.99131964400112,251.4909872650005,None,,,,,,3,001,exponential,rgby,0.75-0.35,2021_May_17_1432,color_judgement_and_subjective_perception,2020.2.10,59.9628223303483,
3,0.9,training,1000,,,,,,0,69,69,69,,,,,,,,,,,,,252.5912614789995,None,d,0.3938074739999138,252.6914146979998,None,252.09110494299966,252.5080862190007,253.10799708200102,253.60810413900072,253.10799708200102,None,,,,,,3,001,exponential,rgby,0.75-0.35,2021_May_17_1432,color_judgement_and_subjective_perception,2020.2.10,59.9628223303483,
0,0.9,training,1000,,,,,,0,70,70,70,,,,,,,,,,,,,254.20796752800015,None,d,0.2893170719999034,254.30794503000106,None,253.70800268499988,254.12464419000025,254.62474220500008,255.12514031300088,254.62474220500008,None,,,,,,3,001,exponential,rgby,0.75-0.35,2021_May_17_1432,color_judgement_and_subjective_perception,2020.2.10,59.9628223303483,
1,0.9,training,1000,,,,,,0,71,71,71,,,,,,,,,,,,,255.70922841600077,None,j,0.3479135919988039,255.80935963999946,None,255.2092298910011,255.6259829770006,256.1757622570003,256.6759790550004,256.1757622570003,None,,,,,,3,001,exponential,rgby,0.75-0.35,2021_May_17_1432,color_judgement_and_subjective_perception,2020.2.10,59.9628223303483,
3,0.9,training,1000,,,,,,0,72,72,72,,,,,,,,,,,,,257.2761383300003,None,k,0.6529654280002433,257.37629530400045,None,256.77595054000085,257.19269120100034,258.05952288499975,258.55967274999966,258.05952288499975,None,,,,,,3,001,exponential,rgby,0.75-0.35,2021_May_17_1432,color_judgement_and_subjective_perception,2020.2.10,59.9628223303483,
0,0.9,training,1000,,,,,,0,73,73,73,,,,,,,,,,,,,259.15969548700014,None,f,0.5534797410000465,259.25978436900004,None,258.65956067000116,259.07648250700004,259.84299297100006,260.3274865349995,259.84299297100006,None,,,,,,3,001,exponential,rgby,0.75-0.35,2021_May_17_1432,color_judgement_and_subjective_perception,2020.2.10,59.9628223303483,
1,0.9,training,1000,,,,,,0,74,74,74,,,,,,,,,,,,,260.9275814049997,None,f,0.561804122000467,261.02746978600044,None,260.42742147100034,260.84413658000085,261.61067856500085,262.1109620120005,261.61067856500085,None,,,,,,3,001,exponential,rgby,0.75-0.35,2021_May_17_1432,color_judgement_and_subjective_perception,2020.2.10,59.9628223303483,
1,0.9,training,1000,,,,,,0,75,75,75,,,,,,,,,,,,,262.7112517559999,None,f,0.41005656699962856,262.81123044200103,None,262.2109364860007,262.6278611070011,263.2444839260006,263.74458618300014,263.2444839260006,None,,,,,,3,001,exponential,rgby,0.75-0.35,2021_May_17_1432,color_judgement_and_subjective_perception,2020.2.10,59.9628223303483,
3,0.9,training,1000,,,,,,0,76,76,76,,,,,,,,,,,,,264.34473141499984,None,k,0.6485849669988966,264.44471269899987,None,263.84455173900096,264.26134368400017,265.11139392100085,265.5957663299996,265.11139392100085,None,,,,,,3,001,exponential,rgby,0.75-0.35,2021_May_17_1432,color_judgement_and_subjective_perception,2020.2.10,59.9628223303483,
0,0.9,training,1000,,,,,,0,77,77,77,,,,,,,,,,,,,266.1959425320001,None,d,0.2615975110002182,266.2956766139996,None,265.69566289999966,266.11244876099954,266.5790197380011,267.0792383700009,266.5790197380011,None,,,,,,3,001,exponential,rgby,0.75-0.35,2021_May_17_1432,color_judgement_and_subjective_perception,2020.2.10,59.9628223303483,
0,0.9,training,1000,,,,,,0,78,78,78,,,,,,,,,,,,,267.6794785710008,None,d,0.38577827799963416,267.7795032160011,None,267.17921160399965,267.5961209800007,268.1960819070009,268.69620671600023,268.1960819070009,None,,,,,,3,001,exponential,rgby,0.75-0.35,2021_May_17_1432,color_judgement_and_subjective_perception,2020.2.10,59.9628223303483,
2,0.9,training,1000,,,,,,0,79,79,79,,,,,,,,,,,,,269.2962138370003,None,j,0.6570224770002824,269.3962579500003,None,268.79607182200016,269.2129222149997,270.07970098999976,270.56401322700003,270.07970098999976,None,,,,,,3,001,exponential,rgby,0.75-0.35,2021_May_17_1432,color_judgement_and_subjective_perception,2020.2.10,59.9628223303483,
1,0.9,training,1000,,,,,,0,80,80,80,,,,,,,,,,,,,271.1640489350011,None,f,0.5973119959999167,271.263961087001,None,270.6638870730003,271.0806686190008,271.8806838260007,272.380967219,271.8806838260007,None,,,,,,3,001,exponential,rgby,0.75-0.35,2021_May_17_1432,color_judgement_and_subjective_perception,2020.2.10,59.9628223303483,
2,0.9,training,1000,,,,,,0,81,81,81,,,,,,,,,,,,,272.9810725900006,None,None,-1,273.08114505900085,None,272.4809329710006,272.89770739400046,273.9809521799998,274.4812555999997,273.9809521799998,None,,,,,,3,001,exponential,rgby,0.75-0.35,2021_May_17_1432,color_judgement_and_subjective_perception,2020.2.10,59.9628223303483,
2,0.9,training,1000,,,,,,0,82,82,82,,,,,,,,,,,,,275.0812231439995,None,j,0.85718417300086,275.18009614900075,None,274.5811982609994,274.9981126670009,276.065499798,276.56572311799937,276.065499798,None,,,,,,3,001,exponential,rgby,0.75-0.35,2021_May_17_1432,color_judgement_and_subjective_perception,2020.2.10,59.9628223303483,
3,0.9,training,1000,,,,,,0,83,83,83,,,,,,,,,,,,,277.16584630299985,None,k,0.5154132509996998,277.26578640200023,None,276.66564289300004,277.0824704330007,277.799221184001,278.29942596399997,277.799221184001,None,,,,,,3,001,exponential,rgby,0.75-0.35,2021_May_17_1432,color_judgement_and_subjective_perception,2020.2.10,59.9628223303483,
0,0.9,training,1000,,,,,,0,84,84,84,,,,,,,,,,,,,278.89936745200066,None,d,0.3817938430001959,278.9994919060009,None,278.3993748280009,278.8160194160009,279.39942427999995,279.899608052001,279.39942427999995,None,,,,,,3,001,exponential,rgby,0.75-0.35,2021_May_17_1432,color_judgement_and_subjective_perception,2020.2.10,59.9628223303483,
3,0.9,training,1000,,,,,,0,85,85,85,,,,,,,,,,,,,280.48389293999935,None,f,0.5735193119999167,280.5837492869996,None,279.99952500200015,280.400532990001,281.183711918,281.6838701350007,281.183711918,None,,,,,,3,001,exponential,rgby,0.75-0.35,2021_May_17_1432,color_judgement_and_subjective_perception,2020.2.10,59.9628223303483,
0,0.9,training,1000,,,,,,0,86,86,86,,,,,,,,,,,,,282.2840006210008,None,d,0.48509105300036026,282.3841729070009,None,281.78391730600015,282.20074777800073,282.90079815900026,283.40080434599986,282.90079815900026,None,,,,,,3,001,exponential,rgby,0.75-0.35,2021_May_17_1432,color_judgement_and_subjective_perception,2020.2.10,59.9628223303483,
1,0.9,training,1000,,,,,,0,87,87,87,,,,,,,,,,,,,284.0009361760003,None,f,0.3762962860000698,284.10097367300114,None,283.500810087,283.9176037489997,284.5008811709995,285.0010730670001,284.5008811709995,None,,,,,,3,001,exponential,rgby,0.75-0.35,2021_May_17_1432,color_judgement_and_subjective_perception,2020.2.10,59.9628223303483,
2,0.9,training,1000,,,,,,0,88,88,88,,,,,,,,,,,,,285.58542642000066,None,None,-1,285.685619707001,None,285.1011531330005,285.5020064290002,286.585370615001,287.08572995800023,286.585370615001,None,,,,,,3,001,exponential,rgby,0.75-0.35,2021_May_17_1432,color_judgement_and_subjective_perception,2020.2.10,59.9628223303483,
2,0.9,training,1000,,,,,,0,89,89,89,,,,,,,,,,,,,287.68583615699936,None,j,0.7073444419984298,287.785917950001,None,287.1855514479994,287.6024266479999,288.51902783399964,289.01927540200086,288.51902783399964,None,,,,,,3,001,exponential,rgby,0.75-0.35,2021_May_17_1432,color_judgement_and_subjective_perception,2020.2.10,59.9628223303483,
1,0.9,training,1000,,,,,,0,90,90,90,,,,,,,,,,,,,289.6193087390002,None,f,0.40593492700099887,289.7193430370007,None,289.1192254159996,289.53594948700083,290.1526210690008,290.6370715310004,290.1526210690008,None,,,,,,3,001,exponential,rgby,0.75-0.35,2021_May_17_1432,color_judgement_and_subjective_perception,2020.2.10,59.9628223303483,
1,0.9,training,1000,,,,,,0,91,91,91,,,,,,,,,,,,,291.23693823100075,None,f,0.4201740720000089,291.3370890719998,None,290.73687079199954,291.1536200089995,291.78699532800056,292.2873059419999,291.78699532800056,None,,,,,,3,001,exponential,rgby,0.75-0.35,2021_May_17_1432,color_judgement_and_subjective_perception,2020.2.10,59.9628223303483,
2,0.9,training,1000,,,,,,0,92,92,92,,,,,,,,,,,,,292.88745967900104,None,j,0.5458126239991543,292.98746120299984,None,292.38718621299995,292.80419223600074,293.5540574000006,294.05414680000104,293.5540574000006,None,,,,,,3,001,exponential,rgby,0.75-0.35,2021_May_17_1432,color_judgement_and_subjective_perception,2020.2.10,59.9628223303483,
2,0.9,training,1000,,,,,,0,93,93,93,,,,,,,,,,,,,294.65426270399985,None,j,0.3709728060002817,294.754309766,None,294.15416779500083,294.571019772,295.15416427700075,295.63860195100096,295.15416427700075,None,,,,,,3,001,exponential,rgby,0.75-0.35,2021_May_17_1432,color_judgement_and_subjective_perception,2020.2.10,59.9628223303483,
0,0.9,training,1000,,,,,,0,94,94,94,,,,,,,,,,,,,296.23856513899955,None,d,0.45869655100068485,296.3385847660011,None,295.7385203369995,296.15535449100025,296.82198873500056,297.32230648599943,296.82198873500056,None,,,,,,3,001,exponential,rgby,0.75-0.35,2021_May_17_1432,color_judgement_and_subjective_perception,2020.2.10,59.9628223303483,
2,0.9,training,1000,,,,,,0,95,95,95,,,,,,,,,,,,,297.92235779300063,None,j,0.5188948619997973,298.0223719580008,None,297.4222508370003,297.83893775900106,298.5721925800008,299.07236102200113,298.5721925800008,None,,,,,,3,001,exponential,rgby,0.75-0.35,2021_May_17_1432,color_judgement_and_subjective_perception,2020.2.10,59.9628223303483,
2,0.75,testing,1000,1,,,,,,,,,0,0,0,0,0,0,0,2,,,,,307.35873661500045,None,None,-1,307.4588163469998,None,306.8606519059995,307.2753475669997,308.35870765599975,308.85889272299937,308.35870765599975,None,0,0,29,,,3,001,exponential,rgby,0.75-0.35,2021_May_17_1432,color_judgement_and_subjective_perception,2020.2.10,59.9628223303483,
1,0.75,testing,1000,1,,,,,,,,,0,0,0,0,0,1,1,1,,,,,309.45904411099946,None,None,-1,309.559023314001,None,308.95878746000017,309.3756383230011,310.4432667960009,310.9433099550006,310.4432667960009,None,0,38,0,,,3,001,exponential,rgby,0.75-0.35,2021_May_17_1432,color_judgement_and_subjective_perception,2020.2.10,59.9628223303483,
0,0.75,testing,1000,1,,,,,,,,,0,0,0,0,0,2,2,0,,,,,311.5434253660005,None,None,-1,311.6433898340001,None,311.0433593510006,311.4601632030008,312.5436001930011,313.0439197119995,312.5436001930011,None,42,14,0,,,3,001,exponential,rgby,0.75-0.35,2021_May_17_1432,color_judgement_and_subjective_perception,2020.2.10,59.9628223303483,
3,0.75,testing,1000,1,,,,,,,,,0,0,0,0,0,3,3,3,,,,,313.6437303160001,None,f,0.6774603500016383,313.7437318880002,None,313.1437892060003,313.56052857800023,314.44377821300077,314.94412878,314.44377821300077,None,53,53,0,,,3,001,exponential,rgby,0.75-0.35,2021_May_17_1432,color_judgement_and_subjective_perception,2020.2.10,59.9628223303483,
2,0.75,testing,1000,1,,,,,,,,,0,0,0,0,1,0,4,2,,,,,315.5281278670009,None,d,0.6249103509999259,315.62837705899983,None,315.04407094700036,315.4446502949995,316.27807017899977,316.7783347610002,316.27807017899977,None,0,0,34,,,3,001,exponential,rgby,0.75-0.35,2021_May_17_1432,color_judgement_and_subjective_perception,2020.2.10,59.9628223303483,
1,0.75,testing,1000,1,,,,,,,,,0,0,0,0,1,1,5,1,,,,,317.37855940100053,None,j,0.6147114880004665,317.47856254100043,None,316.8782709320003,317.2952086490004,318.1118767090011,318.6120629920006,318.1118767090011,None,0,43,0,,,3,001,exponential,rgby,0.75-0.35,2021_May_17_1432,color_judgement_and_subjective_perception,2020.2.10,59.9628223303483,
0,0.75,testing,1000,1,,,,,,,,,0,0,0,0,1,2,6,0,,,,,319.21203817400055,None,f,0.34111703900089196,319.3121622990002,None,318.7118681510001,319.12869230900105,319.678749824001,320.1788504790002,319.678749824001,None,47,16,0,,,3,001,exponential,rgby,0.75-0.35,2021_May_17_1432,color_judgement_and_subjective_perception,2020.2.10,59.9628223303483,
3,0.75,testing,1000,1,,,,,,,,,0,0,0,0,1,3,7,3,,,,,320.7631396939996,None,f,0.45408870699975523,320.8631958599999,None,320.26309491199936,320.67985257500004,321.34645223200096,321.8465791660001,321.34645223200096,None,58,58,0,,,3,001,exponential,rgby,0.75-0.35,2021_May_17_1432,color_judgement_and_subjective_perception,2020.2.10,59.9628223303483,
2,0.75,testing,1000,1,,,,,,,,,0,0,0,0,2,0,8,2,,,,,322.4467577310006,None,d,0.4423337080006604,322.5469349619998,None,321.94668592000016,322.3635807190003,323.0135851260002,323.51366677499936,323.0135851260002,None,0,0,39,,,3,001,exponential,rgby,0.75-0.35,2021_May_17_1432,color_judgement_and_subjective_perception,2020.2.10,59.9628223303483,
0,0.75,testing,1000,1,,,,,,,,,0,0,0,0,2,1,9,0,,,,,324.1136049220004,None,d,0.3995739029996912,324.21369923600105,None,323.61344653500055,324.0304178999995,324.6302213830004,325.1305145030001,324.6302213830004,None,51,17,0,,,3,001,exponential,rgby,0.75-0.35,2021_May_17_1432,color_judgement_and_subjective_perception,2020.2.10,59.9628223303483,
1,0.75,testing,1000,1,,,,,,,,,0,0,0,0,2,2,10,1,,,,,325.71475149900107,None,j,0.47038291200078675,325.8149005890009,None,325.21681890199943,325.63154595200103,326.31456204200003,326.81484781499967,326.31456204200003,None,0,49,0,,,3,001,exponential,rgby,0.75-0.35,2021_May_17_1432,color_judgement_and_subjective_perception,2020.2.10,59.9628223303483,
3,0.75,testing,1000,1,,,,,,,,,0,0,0,0,2,3,11,3,,,,,327.4151211240005,None,k,0.4182052559990552,327.51507549599955,None,326.9148155060011,327.3318283839999,327.96499108100033,328.46510357900115,327.96499108100033,None,63,63,0,,,3,001,exponential,rgby,0.75-0.35,2021_May_17_1432,color_judgement_and_subjective_perception,2020.2.10,59.9628223303483,
0,0.75,testing,1000,1,,,,,,,,,0,0,0,0,3,0,12,0,,,,,329.06515167200087,None,d,0.4801149989998521,329.1651583040002,None,328.5651077040002,328.98195237099935,329.665254734,330.16530721900017,329.665254734,None,55,18,0,,,3,001,exponential,rgby,0.75-0.35,2021_May_17_1432,color_judgement_and_subjective_perception,2020.2.10,59.9628223303483,
2,0.75,testing,1000,1,,,,,,,,,0,0,0,0,3,1,13,2,,,,,330.74960913200084,None,j,0.3796364279987756,330.849647467001,None,330.2494616969998,330.6664128499997,331.24967282599937,331.749759327,331.24967282599937,None,0,0,45,,,3,001,exponential,rgby,0.75-0.35,2021_May_17_1432,color_judgement_and_subjective_perception,2020.2.10,59.9628223303483,
1,0.75,testing,1000,1,,,,,,,,,0,0,0,0,3,2,14,1,,,,,332.35013362800055,None,d,0.41112015300132043,332.4500780260005,None,331.84969508299946,332.26666341800046,332.88325053300105,333.383406631001,332.88325053300105,None,0,54,0,,,3,001,exponential,rgby,0.75-0.35,2021_May_17_1432,color_judgement_and_subjective_perception,2020.2.10,59.9628223303483,
3,0.75,testing,1000,1,,,,,,,,,0,0,0,0,3,3,15,3,,,,,333.98348426600023,None,j,0.47386507599912875,334.0834302460007,None,333.4833280700004,333.9002000830005,334.5835076080002,335.0836637350003,334.5835076080002,None,68,68,0,,,3,001,exponential,rgby,0.75-0.35,2021_May_17_1432,color_judgement_and_subjective_perception,2020.2.10,59.9628223303483,
1,0.75,testing,1000,1,,,,,,,,,0,0,0,0,4,0,16,1,,,,,335.6678912789994,None,f,0.6532768400011264,335.7679855589995,None,335.18349964400113,335.5847014989995,336.45113400800074,336.95148654700097,336.45113400800074,None,0,57,0,,,3,001,exponential,rgby,0.75-0.35,2021_May_17_1432,color_judgement_and_subjective_perception,2020.2.10,59.9628223303483,
0,0.75,testing,1000,1,,,,,,,,,0,0,0,0,4,1,17,0,,,,,337.5515458080008,None,d,0.4977068119987962,337.6516318840004,None,337.0514458079997,337.46841514900007,338.16828466300103,338.66841983300037,338.16828466300103,None,61,20,0,,,3,001,exponential,rgby,0.75-0.35,2021_May_17_1432,color_judgement_and_subjective_perception,2020.2.10,59.9628223303483,
2,0.75,testing,1000,1,,,,,,,,,0,0,0,0,4,2,18,2,,,,,339.26861819700025,None,j,0.46880643499935104,339.3684566310003,None,338.76831198999935,339.1850435209999,339.868486450001,340.35269892500037,339.868486450001,None,0,0,51,,,3,001,exponential,rgby,0.75-0.35,2021_May_17_1432,color_judgement_and_subjective_perception,2020.2.10,59.9628223303483,
3,0.75,testing,1000,1,,,,,,,,,0,0,0,0,4,3,19,3,,,,,340.9527248070008,None,k,0.34430712900029903,341.05286303399953,None,340.4528096209997,340.86953346300106,341.41947648899986,341.9197150809996,341.41947648899986,None,71,71,0,,,3,001,exponential,rgby,0.75-0.35,2021_May_17_1432,color_judgement_and_subjective_perception,2020.2.10,59.9628223303483,
2,0.75,testing,1000,1,,,,,,,,,0,0,0,0,5,0,20,2,,,,,342.5198866490009,None,d,0.6412950659996568,342.61998520199995,None,342.0195906940007,342.43654271800006,343.28646250600104,343.78661672400085,343.28646250600104,None,0,0,50,,,3,001,exponential,rgby,0.75-0.35,2021_May_17_1432,color_judgement_and_subjective_perception,2020.2.10,59.9628223303483,
3,0.75,testing,1000,1,,,,,,,,,0,0,0,0,5,1,21,3,,,,,344.38674054700095,None,k,0.5585324980002042,344.48675158900005,None,343.88649704099953,344.30338737000056,345.06999461099986,345.55436291000115,345.06999461099986,None,72,72,0,,,3,001,exponential,rgby,0.75-0.35,2021_May_17_1432,color_judgement_and_subjective_perception,2020.2.10,59.9628223303483,
1,0.75,testing,1000,1,,,,,,,,,0,0,0,0,5,2,22,1,,,,,346.1545480479999,None,f,0.542697988999862,346.2545825090001,None,345.6541732280002,346.0710969820011,346.8211127180002,347.32146289699995,346.8211127180002,None,0,60,0,,,3,001,exponential,rgby,0.75-0.35,2021_May_17_1432,color_judgement_and_subjective_perception,2020.2.10,59.9628223303483,
0,0.75,testing,1000,1,,,,,,,,,0,0,0,0,5,3,23,0,,,,,347.9214124219998,None,d,0.3037216989996523,348.02157200200054,None,347.42129292200116,347.8380792530006,348.3546493190006,348.8548609009995,348.3546493190006,None,62,21,0,,,3,001,exponential,rgby,0.75-0.35,2021_May_17_1432,color_judgement_and_subjective_perception,2020.2.10,59.9628223303483,
1,0.75,testing,1000,1,,,,,,,,,0,0,0,0,6,0,24,1,,,,,349.4550381270001,None,f,0.6181579310014058,349.5551247069998,None,348.95474815799935,349.37163385200074,350.2036290830001,350.6894338719994,350.2036290830001,None,0,59,0,,,3,001,exponential,rgby,0.75-0.35,2021_May_17_1432,color_judgement_and_subjective_perception,2020.2.10,59.9628223303483,
2,0.75,testing,1000,1,,,,,,,,,0,0,0,0,6,1,25,2,,,,,351.2894002989997,None,j,0.4800071490008122,351.3892677650001,None,350.78916266099986,351.20608260300105,351.889379825001,352.3896728330001,351.889379825001,None,0,0,50,,,3,001,exponential,rgby,0.75-0.35,2021_May_17_1432,color_judgement_and_subjective_perception,2020.2.10,59.9628223303483,
0,0.75,testing,1000,1,,,,,,,,,0,0,0,0,6,2,26,0,,,,,352.9897262079994,None,d,0.7314448170000105,353.0898460990011,None,352.48956925899984,352.90643754099983,353.83979652500057,354.33998906800116,353.83979652500057,None,58,19,0,,,3,001,exponential,rgby,0.75-0.35,2021_May_17_1432,color_judgement_and_subjective_perception,2020.2.10,59.9628223303483,
3,0.75,testing,1000,1,,,,,,,,,0,0,0,0,6,3,27,3,,,,,354.94013488100063,None,k,0.5491501380001864,355.04009267400033,None,354.43981308799994,354.8566559200008,355.60764418100007,356.10758576400076,355.60764418100007,None,69,69,0,,,3,001,exponential,rgby,0.75-0.35,2021_May_17_1432,color_judgement_and_subjective_perception,2020.2.10,59.9628223303483,
2,0.75,testing,1000,1,,,,,,,,,0,0,0,0,7,0,28,2,,,,,356.7076457580006,None,j,0.5095036439997784,356.80777230199965,None,356.2076848880006,356.6244558220005,357.34103238100033,357.8413539560006,357.34103238100033,None,0,0,48,,,3,001,exponential,rgby,0.75-0.35,2021_May_17_1432,color_judgement_and_subjective_perception,2020.2.10,59.9628223303483,
0,0.75,testing,1000,1,,,,,,,,,0,0,0,0,7,1,29,0,,,,,358.441374293001,None,d,0.30394848399919283,358.5413384170006,None,357.9411854360005,358.35804379399997,358.8745778249995,359.37464045100023,358.8745778249995,None,54,18,0,,,3,001,exponential,rgby,0.75-0.35,2021_May_17_1432,color_judgement_and_subjective_perception,2020.2.10,59.9628223303483,
1,0.75,testing,1000,1,,,,,,,,,0,0,0,0,7,2,30,1,,,,,359.97493178700097,None,f,0.6263971570006106,360.0748978970005,None,359.47476985899993,359.8915491759999,360.7256634179994,361.22583245399983,360.7256634179994,None,0,54,0,,,3,001,exponential,rgby,0.75-0.35,2021_May_17_1432,color_judgement_and_subjective_perception,2020.2.10,59.9628223303483,
3,0.75,testing,1000,1,,,,,,,,,0,0,0,0,7,3,31,3,,,,,361.82591345199944,None,k,0.5111012910001591,361.92606736000016,None,361.3258632060006,361.7427186900004,362.4594828650006,362.95969044999947,362.4594828650006,None,66,66,0,,,3,001,exponential,rgby,0.75-0.35,2021_May_17_1432,color_judgement_and_subjective_perception,2020.2.10,59.9628223303483,
3,0.75,testing,1000,1,,,,,,,,,0,0,0,0,8,0,32,3,,,,,363.5596424100004,None,k,0.5056370319998678,363.6596402939995,None,363.05954076499984,363.4763578229995,364.1928133229994,364.6930731650009,364.1928133229994,None,64,64,0,,,3,001,exponential,rgby,0.75-0.35,2021_May_17_1432,color_judgement_and_subjective_perception,2020.2.10,59.9628223303483,
1,0.75,testing,1000,1,,,,,,,,,0,0,0,0,8,1,33,1,,,,,365.27753531599956,None,f,0.619823125000039,365.3774573619994,None,364.79311335500097,365.2086433429995,366.0273826020002,366.527590615,366.0273826020002,None,0,50,0,,,3,001,exponential,rgby,0.75-0.35,2021_May_17_1432,color_judgement_and_subjective_perception,2020.2.10,59.9628223303483,
0,0.75,testing,1000,1,,,,,,,,,0,0,0,0,8,2,34,0,,,,,367.12770838899996,None,d,0.49755059800008894,367.2277051630008,None,366.6273177839994,367.04428341399944,367.7444623049996,368.2444499400008,367.7444623049996,None,48,16,0,,,3,001,exponential,rgby,0.75-0.35,2021_May_17_1432,color_judgement_and_subjective_perception,2020.2.10,59.9628223303483,
2,0.75,testing,1000,1,,,,,,,,,0,0,0,0,8,3,35,2,,,,,368.84460694799964,None,None,-1,368.9447104789997,None,368.3444998920004,368.76116919500055,369.84462920900114,370.3289911459997,369.84462920900114,None,0,0,42,,,3,001,exponential,rgby,0.75-0.35,2021_May_17_1432,color_judgement_and_subjective_perception,2020.2.10,59.9628223303483,
0,0.75,testing,1000,1,,,,,,,,,0,0,0,0,9,0,36,0,,,,,370.9289485959998,None,d,0.5522213900003408,371.02903640600016,None,370.4289493699998,370.8456552460011,371.612346756001,372.11244487600015,371.612346756001,None,47,16,0,,,3,001,exponential,rgby,0.75-0.35,2021_May_17_1432,color_judgement_and_subjective_perception,2020.2.10,59.9628223303483,
3,0.75,testing,1000,1,,,,,,,,,0,0,0,0,9,1,37,3,,,,,372.7127663020001,None,k,0.528502084000138,372.812790254,None,372.2126172549997,372.62936504200115,373.36259749300007,373.8629015380011,373.36259749300007,None,60,60,0,,,3,001,exponential,rgby,0.75-0.35,2021_May_17_1432,color_judgement_and_subjective_perception,2020.2.10,59.9628223303483,
1,0.75,testing,1000,1,,,,,,,,,0,0,0,0,9,2,38,1,,,,,374.4462670770008,None,f,0.3951002440007869,374.54617369900006,None,373.9627137910011,374.36301374399955,374.96294414600015,375.4473043449998,374.96294414600015,None,0,46,0,,,3,001,exponential,rgby,0.75-0.35,2021_May_17_1432,color_judgement_and_subjective_perception,2020.2.10,59.9628223303483,
2,0.75,testing,1000,1,,,,,,,,,0,0,0,0,9,3,39,2,,,,,376.0497840749995,None,d,0.51386187999924,376.147411037,None,375.54724283200085,375.96416824399967,376.68042084899935,377.18074447599975,376.68042084899935,None,0,0,41,,,3,001,exponential,rgby,0.75-0.35,2021_May_17_1432,color_judgement_and_subjective_perception,2020.2.10,59.9628223303483,
1,0.75,testing,1000,1,,,,,,,,,0,0,0,0,10,0,40,1,,,,,377.7808403399995,None,f,0.652286254999126,377.880987216,None,377.280411578,377.69767453200075,378.56427575700036,379.06444904099953,378.56427575700036,None,0,45,0,,,3,001,exponential,rgby,0.75-0.35,2021_May_17_1432,color_judgement_and_subjective_perception,2020.2.10,59.9628223303483,
0,0.75,testing,1000,1,,,,,,,,,0,0,0,0,10,1,41,0,,,,,379.6644481200001,None,d,0.49651974300104484,379.76467060899995,None,379.16450764900037,379.5810865759995,380.2821069269994,380.78225228500014,380.2821069269994,None,45,15,0,,,3,001,exponential,rgby,0.75-0.35,2021_May_17_1432,color_judgement_and_subjective_perception,2020.2.10,59.9628223303483,
2,0.75,testing,1000,1,,,,,,,,,0,0,0,0,10,2,42,2,,,,,381.38222293500075,None,j,0.2748108380001213,381.48244623699975,None,380.8821790359998,381.29887594700085,381.78226648500095,382.282377032001,381.78226648500095,None,0,0,43,,,3,001,exponential,rgby,0.75-0.35,2021_May_17_1432,color_judgement_and_subjective_perception,2020.2.10,59.9628223303483,
3,0.75,testing,1000,1,,,,,,,,,0,0,0,0,10,3,43,3,,,,,382.8826187100003,None,k,0.5266843600002176,382.98258919699947,None,382.38242926100065,382.79932535700027,383.5325619920004,384.03273912900113,383.5325619920004,None,57,57,0,,,3,001,exponential,rgby,0.75-0.35,2021_May_17_1432,color_judgement_and_subjective_perception,2020.2.10,59.9628223303483,
1,0.75,testing,1000,1,,,,,,,,,0,0,0,0,11,0,44,1,,,,,384.63275784300095,None,j,0.8165026180013228,384.73280313299983,None,384.1326712600003,384.5495475080006,385.5671320830006,386.0671186140007,385.5671320830006,None,0,42,0,,,3,001,exponential,rgby,0.75-0.35,2021_May_17_1432,color_judgement_and_subjective_perception,2020.2.10,59.9628223303483,
2,0.75,testing,1000,1,,,,,,,,,0,0,0,0,11,1,45,2,,,,,386.66727437600093,None,d,0.4858886940000957,386.76727878100064,None,386.16711863800083,386.5838800239999,387.28642358400066,387.78427959200053,387.28642358400066,None,0,0,43,,,3,001,exponential,rgby,0.75-0.35,2021_May_17_1432,color_judgement_and_subjective_perception,2020.2.10,59.9628223303483,
0,0.75,testing,1000,1,,,,,,,,,0,0,0,0,11,2,46,0,,,,,388.384247983,None,d,0.5290527619999921,388.48421235500064,None,387.8841533970008,388.3007903430007,389.03418654300003,389.5342473310011,389.03418654300003,None,43,14,0,,,3,001,exponential,rgby,0.75-0.35,2021_May_17_1432,color_judgement_and_subjective_perception,2020.2.10,59.9628223303483,
3,0.75,testing,1000,1,,,,,,,,,0,0,0,0,11,3,47,3,,,,,390.134424236001,None,f,0.6273850439993112,390.225884589001,None,389.6342970860005,390.05111004399987,390.8850575859997,391.3853698990006,390.8850575859997,None,58,58,0,,,3,001,exponential,rgby,0.75-0.35,2021_May_17_1432,color_judgement_and_subjective_perception,2020.2.10,59.9628223303483,
1,0.75,testing,1000,1,,,,,,,,,0,0,0,0,12,0,48,1,,,,,391.98563616200045,None,f,0.6156510230011918,392.0856304400004,None,391.485242398001,391.90220782899996,392.71878425900104,393.21912158600026,392.71878425900104,None,0,47,0,,,3,001,exponential,rgby,0.75-0.35,2021_May_17_1432,color_judgement_and_subjective_perception,2020.2.10,59.9628223303483,
3,0.75,testing,1000,1,,,,,,,,,0,0,0,0,12,1,49,3,,,,,393.8192712710006,None,k,0.46209971100142866,393.9192062809998,None,393.3190676049999,393.7358763280008,394.4024276550008,394.90269955700023,394.4024276550008,None,61,61,0,,,3,001,exponential,rgby,0.75-0.35,2021_May_17_1432,color_judgement_and_subjective_perception,2020.2.10,59.9628223303483,
2,0.75,testing,1000,1,,,,,,,,,0,0,0,0,12,2,50,2,,,,,395.4868796339997,None,j,0.6261925880007766,395.5870759370009,None,395.0027038520002,395.40352091299974,396.23689095100053,396.73722296599954,396.23689095100053,None,0,0,49,,,3,001,exponential,rgby,0.75-0.35,2021_May_17_1432,color_judgement_and_subjective_perception,2020.2.10,59.9628223303483,
0,0.75,testing,1000,1,,,,,,,,,0,0,0,0,12,3,51,0,,,,,397.3372483410003,None,d,0.4800310440004978,397.43724450899936,None,396.83709599900067,397.25393198799975,397.9372065509997,398.43735130999994,397.9372065509997,None,45,15,0,,,3,001,exponential,rgby,0.75-0.35,2021_May_17_1432,color_judgement_and_subjective_perception,2020.2.10,59.9628223303483,
1,0.75,testing,1000,1,,,,,,,,,0,0,0,0,13,0,52,1,,,,,399.0374458410006,None,k,0.4598565399992367,399.13744734600004,None,398.5373508619996,398.9540854219995,399.6207112030006,400.12096520700106,399.6207112030006,None,0,48,0,,,3,001,exponential,rgby,0.75-0.35,2021_May_17_1432,color_judgement_and_subjective_perception,2020.2.10,59.9628223303483,
2,0.75,testing,1000,1,,,,,,,,,0,0,0,0,13,1,53,2,,,,,400.70516374,None,d,0.4241358319995925,400.80515126799946,None,400.21959110100033,400.62198286000057,401.255120111,401.7553579079995,401.255120111,None,0,0,49,,,3,001,exponential,rgby,0.75-0.35,2021_May_17_1432,color_judgement_and_subjective_perception,2020.2.10,59.9628223303483,
0,0.75,testing,1000,1,,,,,,,,,0,0,0,0,13,2,54,0,,,,,402.3555395559997,None,d,0.48566916700110596,402.4556095860007,None,401.85544111700074,402.27218686299966,402.9721368740011,403.4722991560011,402.9721368740011,None,45,15,0,,,3,001,exponential,rgby,0.75-0.35,2021_May_17_1432,color_judgement_and_subjective_perception,2020.2.10,59.9628223303483,
3,0.75,testing,1000,1,,,,,,,,,0,0,0,0,13,3,55,3,,,,,404.07272291700065,None,f,0.7129586909995851,404.1723165019994,None,403.57214480199946,403.98891373600054,404.905709355,405.3902022450002,404.905709355,None,62,62,0,,,3,001,exponential,rgby,0.75-0.35,2021_May_17_1432,color_judgement_and_subjective_perception,2020.2.10,59.9628223303483,
3,0.75,testing,1000,1,,,,,,,,,0,0,0,0,14,0,56,3,,,,,405.9901492549998,None,k,0.4749603809996188,406.0903220220007,None,405.49011880800026,405.9071002990004,406.59009721300026,407.09036536200074,406.59009721300026,None,64,64,0,,,3,001,exponential,rgby,0.75-0.35,2021_May_17_1432,color_judgement_and_subjective_perception,2020.2.10,59.9628223303483,
2,0.75,testing,1000,1,,,,,,,,,0,0,0,0,14,1,57,2,,,,,407.69045783100046,None,d,0.3587734469983843,407.79049568700066,None,407.19028436900044,407.60714324199944,408.1737738970005,408.67392432499946,408.1737738970005,None,0,0,54,,,3,001,exponential,rgby,0.75-0.35,2021_May_17_1432,color_judgement_and_subjective_perception,2020.2.10,59.9628223303483,
1,0.75,testing,1000,1,,,,,,,,,0,0,0,0,14,2,58,1,,,,,409.2739995659995,None,d,0.39123058099903574,409.3740378880011,None,408.7737801510011,409.190707537,409.79056875900096,410.27511734700056,409.79056875900096,None,0,55,0,,,3,001,exponential,rgby,0.75-0.35,2021_May_17_1432,color_judgement_and_subjective_perception,2020.2.10,59.9628223303483,
0,0.75,testing,1000,1,,,,,,,,,0,0,0,0,14,3,59,0,,,,,410.87514977799947,None,d,0.6141448769994895,410.97510094500103,None,410.37501805300053,410.7919025730007,411.60839031199976,412.10872700300024,411.60839031199976,None,49,16,0,,,3,001,exponential,rgby,0.75-0.35,2021_May_17_1432,color_judgement_and_subjective_perception,2020.2.10,59.9628223303483,
3,0.75,testing,1000,1,,,,,,,,,0,0,0,0,15,0,60,3,,,,,412.70886632600013,None,k,0.3965252620000683,412.80874811099966,None,412.2086129870004,412.62530120700103,413.2254388580004,413.72544311300044,413.2254388580004,None,69,69,0,,,3,001,exponential,rgby,0.75-0.35,2021_May_17_1432,color_judgement_and_subjective_perception,2020.2.10,59.9628223303483,
1,0.75,testing,1000,1,,,,,,,,,0,0,0,0,15,1,61,1,,,,,414.32551390200024,None,f,0.4916837040000246,414.4255964940003,None,413.8255266689994,414.24223453500053,414.9422063759994,415.426465894001,414.9422063759994,None,0,59,0,,,3,001,exponential,rgby,0.75-0.35,2021_May_17_1432,color_judgement_and_subjective_perception,2020.2.10,59.9628223303483,
2,0.75,testing,1000,1,,,,,,,,,0,0,0,0,15,2,62,2,,,,,416.02653425300014,None,j,0.47073562200057495,416.12657534699974,None,415.5264771439997,415.9433294740011,416.6264986160004,417.1267580090007,416.6264986160004,None,0,0,58,,,3,001,exponential,rgby,0.75-0.35,2021_May_17_1432,color_judgement_and_subjective_perception,2020.2.10,59.9628223303483,
0,0.75,testing,1000,1,,,,,,,,,0,0,0,0,15,3,63,0,,,,,417.7269853809994,None,d,0.45819715399920824,417.8270710659999,None,417.2267236780008,417.6436491450004,418.31032769600097,418.81037071100036,418.31032769600097,None,48,16,0,,,3,001,exponential,rgby,0.75-0.35,2021_May_17_1432,color_judgement_and_subjective_perception,2020.2.10,59.9628223303483,
0,0.75,testing,1000,1,,,,,,,,,0,0,0,0,16,0,64,0,,,,,419.4104286439997,None,j,0.566722606001349,419.5105146450005,None,418.910396452,419.32720425499974,420.0938451050006,420.57823799400103,420.0938451050006,None,46,15,0,,,3,001,exponential,rgby,0.75-0.35,2021_May_17_1432,color_judgement_and_subjective_perception,2020.2.10,59.9628223303483,
3,0.75,testing,1000,1,,,,,,,,,0,0,0,0,16,1,65,3,,,,,421.1780272800006,None,k,0.4629540910009382,421.2783186760007,None,420.67825096600063,421.0950712499998,421.7615740479996,422.2617567119996,421.7615740479996,None,67,67,0,,,3,001,exponential,rgby,0.75-0.35,2021_May_17_1432,color_judgement_and_subjective_perception,2020.2.10,59.9628223303483,
2,0.75,testing,1000,1,,,,,,,,,0,0,0,0,16,2,66,2,,,,,422.8619653679998,None,j,0.4593290529992373,422.96197685399966,None,422.3617381799995,422.77866562300005,423.4451600829998,423.94523813399974,423.4451600829998,None,0,0,59,,,3,001,exponential,rgby,0.75-0.35,2021_May_17_1432,color_judgement_and_subjective_perception,2020.2.10,59.9628223303483,
1,0.75,testing,1000,1,,,,,,,,,0,0,0,0,16,3,67,1,,,,,424.5454953320004,None,f,0.6316993360014749,424.64557529299964,None,424.04536924400054,424.46214022800086,425.2964741800006,425.796561774001,425.2964741800006,None,0,58,0,,,3,001,exponential,rgby,0.75-0.35,2021_May_17_1432,color_judgement_and_subjective_perception,2020.2.10,59.9628223303483,
0,0.75,testing,1000,1,,,,,,,,,0,0,0,0,17,0,68,0,,,,,426.39660011200067,None,d,0.5806870619999245,426.49658468100097,None,425.8964933370007,426.313129776001,427.0965744770001,427.5967587030009,427.0965744770001,None,47,16,0,,,3,001,exponential,rgby,0.75-0.35,2021_May_17_1432,color_judgement_and_subjective_perception,2020.2.10,59.9628223303483,
1,0.75,testing,1000,1,,,,,,,,,0,0,0,0,17,1,69,1,,,,,428.19688473600036,None,f,0.5724018789987895,428.2968794999997,None,427.6967331100004,428.11353433099976,428.8967855490009,429.3970413200004,428.8967855490009,None,0,57,0,,,3,001,exponential,rgby,0.75-0.35,2021_May_17_1432,color_judgement_and_subjective_perception,2020.2.10,59.9628223303483,
3,0.75,testing,1000,1,,,,,,,,,0,0,0,0,17,2,70,3,,,,,429.997003415001,None,k,0.5802085740015173,430.0970648670009,None,429.49687663700024,429.913818559,430.69795920400065,431.1980559620006,430.69795920400065,None,63,63,0,,,3,001,exponential,rgby,0.75-0.35,2021_May_17_1432,color_judgement_and_subjective_perception,2020.2.10,59.9628223303483,
2,0.75,testing,1000,1,,,,,,,,,0,0,0,0,17,3,71,2,,,,,431.7981636980003,None,j,0.3151191030010523,431.89816145999976,None,431.2980125419999,431.71498846600116,432.2315092940007,432.7318038499998,432.2315092940007,None,0,0,55,,,3,001,exponential,rgby,0.75-0.35,2021_May_17_1432,color_judgement_and_subjective_perception,2020.2.10,59.9628223303483,
0,0.75,testing,1000,1,,,,,,,,,0,0,0,0,18,0,72,0,,,,,433.3318740979994,None,d,0.3973090809995483,433.4319656450007,None,432.8317159070011,433.2485461460001,433.8484077869998,434.34869059599987,433.8484077869998,None,42,14,0,,,3,001,exponential,rgby,0.75-0.35,2021_May_17_1432,color_judgement_and_subjective_perception,2020.2.10,59.9628223303483,
1,0.75,testing,1000,1,,,,,,,,,0,0,0,0,18,1,73,1,,,,,434.94881034900027,None,j,0.5405480810004519,435.04873473299995,None,434.4485705269999,434.8653848970007,435.6162031750009,436.11627591100114,435.6162031750009,None,0,52,0,,,3,001,exponential,rgby,0.75-0.35,2021_May_17_1432,color_judgement_and_subjective_perception,2020.2.10,59.9628223303483,
3,0.75,testing,1000,1,,,,,,,,,0,0,0,0,18,2,74,3,,,,,436.716490402001,None,k,0.5807715730006748,436.81650177899974,None,436.2162993590009,436.6329638700008,437.41642115800096,437.9164226940011,437.41642115800096,None,60,60,0,,,3,001,exponential,rgby,0.75-0.35,2021_May_17_1432,color_judgement_and_subjective_perception,2020.2.10,59.9628223303483,
2,0.75,testing,1000,1,,,,,,,,,0,0,0,0,18,3,75,2,,,,,438.5165742629997,None,j,0.3325882980007009,438.6166732840011,None,438.0166297169999,438.43321979100074,438.96652451299997,439.46675724300076,438.96652451299997,None,0,0,54,,,3,001,exponential,rgby,0.75-0.35,2021_May_17_1432,color_judgement_and_subjective_perception,2020.2.10,59.9628223303483,
2,0.75,testing,1000,1,,,,,,,,,0,0,0,0,19,0,76,2,,,,,440.06679400600115,None,j,0.5584519590011041,440.1668355290003,None,439.56679245899977,439.983687928001,440.75126005200036,441.2512582590007,440.75126005200036,None,0,0,52,,,3,001,exponential,rgby,0.75-0.35,2021_May_17_1432,color_judgement_and_subjective_perception,2020.2.10,59.9628223303483,
3,0.75,testing,1000,1,,,,,,,,,0,0,0,0,19,1,77,3,,,,,441.8514211359998,None,k,0.6138630879995617,441.95142229200064,None,441.35123612499956,441.768009237001,442.5847556389999,443.08497223300037,442.5847556389999,None,56,56,0,,,3,001,exponential,rgby,0.75-0.35,2021_May_17_1432,color_judgement_and_subjective_perception,2020.2.10,59.9628223303483,
0,0.75,testing,1000,1,,,,,,,,,0,0,0,0,19,2,78,0,,,,,443.6849830760002,None,d,0.45235100599893485,443.7849529520008,None,443.184797023001,443.6017055430002,444.26824103800027,444.7686773959995,444.26824103800027,None,37,12,0,,,3,001,exponential,rgby,0.75-0.35,2021_May_17_1432,color_judgement_and_subjective_perception,2020.2.10,59.9628223303483,
1,0.75,testing,1000,1,,,,,,,,,0,0,0,0,19,3,79,1,,,,,445.35267530500096,None,f,0.33652366700152925,445.45275742600097,None,444.86843959699945,445.26952164199975,445.81953806800084,446.3195319389997,445.81953806800084,None,0,49,0,,,3,001,exponential,rgby,0.75-0.35,2021_May_17_1432,color_judgement_and_subjective_perception,2020.2.10,59.9628223303483,
0,0.75,testing,1000,1,,,,,,,,,0,0,0,0,20,0,80,0,,,,,446.91978291600026,None,j,0.44163234400002693,447.01965002900033,None,446.4194569120009,446.8363833980002,447.486272043001,447.98662415800027,447.486272043001,None,34,11,0,,,3,001,exponential,rgby,0.75-0.35,2021_May_17_1432,color_judgement_and_subjective_perception,2020.2.10,59.9628223303483,
2,0.75,testing,1000,1,,,,,,,,,0,0,0,0,20,1,81,2,,,,,448.58643946200027,None,j,0.2867678700004035,448.68652017600107,None,448.0864427590004,448.50307108000015,449.0032213890008,449.503319382,449.0032213890008,None,0,0,48,,,3,001,exponential,rgby,0.75-0.35,2021_May_17_1432,color_judgement_and_subjective_perception,2020.2.10,59.9628223303483,
3,0.75,testing,1000,1,,,,,,,,,0,0,0,0,20,2,82,3,,,,,450.1035410380009,None,d,0.3698521130008885,450.20343182599936,None,449.60341323600005,450.02017695200084,450.604278928,451.10444543800077,450.604278928,None,52,52,0,,,3,001,exponential,rgby,0.75-0.35,2021_May_17_1432,color_judgement_and_subjective_perception,2020.2.10,59.9628223303483,
1,0.75,testing,1000,1,,,,,,,,,0,0,0,0,20,3,83,1,,,,,451.70450469299976,None,f,0.6568196909993276,451.80446856300114,None,451.20446474799974,451.62114823699994,452.4879462940007,452.98809862599956,452.4879462940007,None,0,50,0,,,3,001,exponential,rgby,0.75-0.35,2021_May_17_1432,color_judgement_and_subjective_perception,2020.2.10,59.9628223303483,
2,0.75,testing,1000,1,,,,,,,,,0,0,0,0,21,0,84,2,,,,,453.5880932580003,None,d,0.4609293200010143,453.68827478800085,None,453.0881522460004,453.5049166009994,454.1713129920008,454.6717002740006,454.1713129920008,None,0,0,48,,,3,001,exponential,rgby,0.75-0.35,2021_May_17_1432,color_judgement_and_subjective_perception,2020.2.10,59.9628223303483,
3,0.75,testing,1000,1,,,,,,,,,0,0,0,0,21,1,85,3,,,,,455.2565100539996,None,k,0.7531536309998046,455.35609724999995,None,454.77160124799957,455.1883516830003,456.1392931980008,456.63941697300106,456.1392931980008,None,56,56,0,,,3,001,exponential,rgby,0.75-0.35,2021_May_17_1432,color_judgement_and_subjective_perception,2020.2.10,59.9628223303483,
1,0.75,testing,1000,1,,,,,,,,,0,0,0,0,21,2,86,1,,,,,457.23956312799965,None,f,0.5536520000005112,457.3396103560008,None,456.7393882619999,457.1561992759998,457.92291418900095,458.4231579850002,457.92291418900095,None,0,52,0,,,3,001,exponential,rgby,0.75-0.35,2021_May_17_1432,color_judgement_and_subjective_perception,2020.2.10,59.9628223303483,
0,0.75,testing,1000,1,,,,,,,,,0,0,0,0,21,3,87,0,,,,,459.02325442599977,None,d,0.5301927350010374,459.1230799269997,None,458.5230876959995,458.93987678099984,459.6731976629999,460.17348082699937,459.6731976629999,None,40,13,0,,,3,001,exponential,rgby,0.75-0.35,2021_May_17_1432,color_judgement_and_subjective_perception,2020.2.10,59.9628223303483,
0,0.75,testing,1000,1,,,,,,,,,0,0,0,0,22,0,88,0,,,,,460.7576566099997,None,d,0.5236077919998934,460.8576581890011,None,460.25964655400094,460.67425881300005,461.40766994099977,461.90771674700045,461.40766994099977,None,40,13,0,,,3,001,exponential,rgby,0.75-0.35,2021_May_17_1432,color_judgement_and_subjective_perception,2020.2.10,59.9628223303483,
2,0.75,testing,1000,1,,,,,,,,,0,0,0,0,22,1,89,2,,,,,462.5079419579997,None,j,0.557266278001407,462.60798547299964,None,462.0076321689994,462.4245899260004,463.1912048869999,463.6915024400005,463.1912048869999,None,0,0,50,,,3,001,exponential,rgby,0.75-0.35,2021_May_17_1432,color_judgement_and_subjective_perception,2020.2.10,59.9628223303483,
3,0.75,testing,1000,1,,,,,,,,,0,0,0,0,22,2,90,3,,,,,464.29142939899975,None,f,0.5737612150005589,464.3914979350011,None,463.791301872001,464.2080383659995,464.99134696200053,465.4758239290004,464.99134696200053,None,54,54,0,,,3,001,exponential,rgby,0.75-0.35,2021_May_17_1432,color_judgement_and_subjective_perception,2020.2.10,59.9628223303483,
1,0.75,testing,1000,1,,,,,,,,,0,0,0,0,22,3,91,1,,,,,466.0759013520001,None,f,0.605424094999762,466.1758640570006,None,465.5758536030007,465.9924474239997,466.8090540060002,467.3092974330011,466.8090540060002,None,0,50,0,,,3,001,exponential,rgby,0.75-0.35,2021_May_17_1432,color_judgement_and_subjective_perception,2020.2.10,59.9628223303483,
0,0.75,testing,1000,1,,,,,,,,,0,0,0,0,23,0,92,0,,,,,467.90957186500054,None,d,0.5238010459997895,468.0094772020002,None,467.4093071740008,467.8262171410006,468.5593611509994,469.0597012920007,468.5593611509994,None,39,13,0,,,3,001,exponential,rgby,0.75-0.35,2021_May_17_1432,color_judgement_and_subjective_perception,2020.2.10,59.9628223303483,
3,0.75,testing,1000,1,,,,,,,,,0,0,0,0,23,1,93,3,,,,,469.6597293240011,None,k,0.5254541040012555,469.75981539299937,None,469.1595807160011,469.5762929480006,470.3105155080011,470.8105738129998,470.3105155080011,None,56,56,0,,,3,001,exponential,rgby,0.75-0.35,2021_May_17_1432,color_judgement_and_subjective_perception,2020.2.10,59.9628223303483,
1,0.75,testing,1000,1,,,,,,,,,0,0,0,0,23,2,94,1,,,,,471.4106137100007,None,f,0.7986255069990875,471.51065719300095,None,470.91063539900097,471.32734928100035,472.32756114100084,472.82781513900045,472.32756114100084,None,0,48,0,,,3,001,exponential,rgby,0.75-0.35,2021_May_17_1432,color_judgement_and_subjective_perception,2020.2.10,59.9628223303483,
2,0.75,testing,1000,1,,,,,,,,,0,0,0,0,23,3,95,2,,,,,473.4280085290011,None,j,0.7332750419991498,473.52788022999994,None,472.92771689599977,473.34434696300013,474.29455922499983,474.7946184070006,474.29455922499983,None,0,0,49,,,3,001,exponential,rgby,0.75-0.35,2021_May_17_1432,color_judgement_and_subjective_perception,2020.2.10,59.9628223303483,
1,0.75,testing,1000,1,,,,,,,,,0,0,0,0,,,,,0,0,0,1,480.93050997700084,None,f,0.7347733529986726,481.0305116870004,None,480.4304179690007,480.84731088899935,481.79850793600053,482.29752891300086,481.79850793600053,None,0,45,0,474.90688407500056,None,3,001,exponential,rgby,0.75-0.35,2021_May_17_1432,color_judgement_and_subjective_perception,2020.2.10,59.9628223303483,
2,0.75,testing,1000,1,,,,,,,,,0,0,0,0,,,,,0,1,1,2,482.89766442400105,None,j,0.6235533839990239,482.9977339300003,None,482.3972725620006,482.8143937200002,483.64752231199964,484.14781854899957,483.64752231199964,None,0,0,46,None,None,3,001,exponential,rgby,0.75-0.35,2021_May_17_1432,color_judgement_and_subjective_perception,2020.2.10,59.9628223303483,
1,0.75,testing,1000,1,,,,,,,,,0,0,0,0,,,,,0,2,2,1,484.74780388699946,None,f,0.7093319939995126,484.84792176500014,None,484.2475509770011,484.6645721320001,485.58202386800076,486.08201987600114,485.58202386800076,None,0,42,0,None,None,3,001,exponential,rgby,0.75-0.35,2021_May_17_1432,color_judgement_and_subjective_perception,2020.2.10,59.9628223303483,
1,0.75,testing,1000,1,,,,,,,,,0,0,0,0,,,,,0,3,3,1,486.68216973200106,None,f,0.7991290280006069,486.782135761001,None,486.181897208,486.5988823330008,487.59909142000106,488.099205474,487.59909142000106,None,0,40,0,None,None,3,001,exponential,rgby,0.75-0.35,2021_May_17_1432,color_judgement_and_subjective_perception,2020.2.10,59.9628223303483,
0,0.75,testing,1000,1,,,,,,,,,0,0,0,0,,,,,1,0,4,0,488.6991441650007,None,d,0.6061005169995042,488.79918864200044,None,488.199001899,488.6159606760011,489.4325120449994,489.93275231699954,489.4325120449994,None,30,10,0,None,None,3,001,exponential,rgby,0.75-0.35,2021_May_17_1432,color_judgement_and_subjective_perception,2020.2.10,59.9628223303483,
1,0.75,testing,1000,1,,,,,,,,,0,0,0,0,,,,,1,1,5,1,490.51696276300027,None,f,0.8121876349996455,490.61705066600007,None,490.0326370900002,490.4337328210004,491.45029832100045,491.95051150200015,491.45029832100045,None,0,37,0,None,None,3,001,exponential,rgby,0.75-0.35,2021_May_17_1432,color_judgement_and_subjective_perception,2020.2.10,59.9628223303483,
1,0.75,testing,1000,1,,,,,,,,,0,0,0,0,,,,,1,2,6,1,492.5507680240007,None,f,0.6665273119997437,492.65072804900046,None,492.05035823400067,492.4673412259999,493.33438696600024,493.8341629160004,493.33438696600024,None,0,35,0,None,None,3,001,exponential,rgby,0.75-0.35,2021_May_17_1432,color_judgement_and_subjective_perception,2020.2.10,59.9628223303483,
1,0.75,testing,1000,1,,,,,,,,,0,0,0,0,,,,,1,3,7,1,494.43423044500014,None,f,0.39902599600100075,494.5342300169996,None,493.9339228170011,494.3508460949997,494.95101234200047,495.4354246109997,494.95101234200047,None,0,33,0,None,None,3,001,exponential,rgby,0.75-0.35,2021_May_17_1432,color_judgement_and_subjective_perception,2020.2.10,59.9628223303483,
1,0.75,testing,1000,1,,,,,,,,,0,0,0,0,,,,,2,0,8,1,496.0379154410002,None,f,0.613812836998477,496.13544131600065,None,495.5351856460002,495.95212590400115,496.7686722470007,497.26886891200047,496.7686722470007,None,0,31,0,None,None,3,001,exponential,rgby,0.75-0.35,2021_May_17_1432,color_judgement_and_subjective_perception,2020.2.10,59.9628223303483,
2,0.75,testing,1000,1,,,,,,,,,0,0,0,0,,,,,2,1,9,2,497.8689963199995,None,f,0.26818819899926893,497.9691004460001,None,497.3686790610009,497.78569976200015,498.27053066900044,498.76901169099983,498.27053066900044,None,0,0,37,None,None,3,001,exponential,rgby,0.75-0.35,2021_May_17_1432,color_judgement_and_subjective_perception,2020.2.10,59.9628223303483,
2,0.75,testing,1000,1,,,,,,,,,0,0,0,0,,,,,2,2,10,2,499.3692012909996,None,j,0.680082812999899,499.46912037999937,None,498.86891121900044,499.2858284670001,500.17083846199967,500.65352774799976,500.17083846199967,None,0,0,39,None,None,3,001,exponential,rgby,0.75-0.35,2021_May_17_1432,color_judgement_and_subjective_perception,2020.2.10,59.9628223303483,
3,0.75,testing,1000,1,,,,,,,,,0,0,0,0,,,,,2,3,11,3,501.2536225969998,None,f,0.8518070379996061,501.35347857099987,None,500.75348414200016,501.1701656820005,502.23849378900013,502.7370162690004,502.23849378900013,None,45,45,0,None,None,3,001,exponential,rgby,0.75-0.35,2021_May_17_1432,color_judgement_and_subjective_perception,2020.2.10,59.9628223303483,
3,0.75,testing,1000,1,,,,,,,,,0,0,0,0,,,,,3,0,12,3,503.337430167001,None,f,0.5520390830006363,503.4372414469999,None,502.83712004600056,503.25394022100045,504.02056350100065,504.5208106789996,504.02056350100065,None,47,47,0,None,None,3,001,exponential,rgby,0.75-0.35,2021_May_17_1432,color_judgement_and_subjective_perception,2020.2.10,59.9628223303483,
0,0.75,testing,1000,1,,,,,,,,,0,0,0,0,,,,,3,1,13,0,505.1209475329997,None,d,0.5923994490003679,505.2208783469996,None,504.62058192599943,505.03758790699976,505.8396981500009,506.33848797500104,505.8396981500009,None,26,9,0,None,None,3,001,exponential,rgby,0.75-0.35,2021_May_17_1432,color_judgement_and_subjective_perception,2020.2.10,59.9628223303483,
1,0.75,testing,1000,1,,,,,,,,,0,0,0,0,,,,,3,2,14,1,506.9386608220011,None,d,0.47071016100017005,507.0385752050006,None,506.43833468900084,506.855256234001,507.54003310400003,508.03883574000065,507.54003310400003,None,0,32,0,None,None,3,001,exponential,rgby,0.75-0.35,2021_May_17_1432,color_judgement_and_subjective_perception,2020.2.10,59.9628223303483,
3,0.75,testing,1000,1,,,,,,,,,0,0,0,0,,,,,3,3,15,3,508.63894410300054,None,f,0.5784082760001183,508.7388741140003,None,508.13873406899984,508.555526518001,509.33892672,509.83904488400003,509.33892672,None,51,51,0,None,None,3,001,exponential,rgby,0.75-0.35,2021_May_17_1432,color_judgement_and_subjective_perception,2020.2.10,59.9628223303483,
1,0.75,testing,1000,1,,,,,,,,,0,0,0,0,,,,,4,0,16,1,510.4234211130006,None,f,0.7299690889994963,510.523314778,None,509.93899479100037,510.34013569700073,511.27462764700067,511.7733366829998,511.27462764700067,None,0,35,0,None,None,3,001,exponential,rgby,0.75-0.35,2021_May_17_1432,color_judgement_and_subjective_perception,2020.2.10,59.9628223303483,
1,0.75,testing,1000,1,,,,,,,,,0,0,0,0,,,,,4,1,17,1,512.3736495859994,None,f,0.6116691269999137,512.4736164669994,None,511.873466088,512.2902771410008,513.1070833930007,513.6072425660004,513.1070833930007,None,0,35,0,None,None,3,001,exponential,rgby,0.75-0.35,2021_May_17_1432,color_judgement_and_subjective_perception,2020.2.10,59.9628223303483,
1,0.75,testing,1000,1,,,,,,,,,0,0,0,0,,,,,4,2,18,1,514.2071520450008,None,f,0.602067657000589,514.307197174001,None,513.7069270030006,514.1240480119995,514.9404761549995,515.4250159610001,514.9404761549995,None,0,35,0,None,None,3,001,exponential,rgby,0.75-0.35,2021_May_17_1432,color_judgement_and_subjective_perception,2020.2.10,59.9628223303483,
3,0.75,testing,1000,1,,,,,,,,,0,0,0,0,,,,,4,3,19,3,516.024946775,None,k,0.616268076999404,516.1249869100011,None,515.5248037519996,515.9414482040011,516.7583459630005,517.258512411001,516.7583459630005,None,56,56,0,None,None,3,001,exponential,rgby,0.75-0.35,2021_May_17_1432,color_judgement_and_subjective_perception,2020.2.10,59.9628223303483,
3,0.75,testing,1000,1,,,,,,,,,0,0,0,0,,,,,5,0,20,3,517.8586334190004,None,k,0.5105686299993977,517.9586605180011,None,517.3584171330003,517.7753506839999,518.4920461180009,518.9920569149999,518.4920461180009,None,56,56,0,None,None,3,001,exponential,rgby,0.75-0.35,2021_May_17_1432,color_judgement_and_subjective_perception,2020.2.10,59.9628223303483,
3,0.75,testing,1000,1,,,,,,,,,0,0,0,0,,,,,5,1,21,3,519.592352271,None,k,0.3607465709992539,519.6923891019997,None,519.091999739001,519.5087753240005,520.0754870359997,520.5597856229997,520.0754870359997,None,56,56,0,None,None,3,001,exponential,rgby,0.75-0.35,2021_May_17_1432,color_judgement_and_subjective_perception,2020.2.10,59.9628223303483,
2,0.75,testing,1000,1,,,,,,,,,0,0,0,0,,,,,5,2,22,2,521.1598552079995,None,j,0.4894605520003097,521.2598273160002,None,520.6596907759995,521.0765719330011,521.7765873090011,522.2767626109999,521.7765873090011,None,0,0,44,None,None,3,001,exponential,rgby,0.75-0.35,2021_May_17_1432,color_judgement_and_subjective_perception,2020.2.10,59.9628223303483,
0,0.75,testing,1000,1,,,,,,,,,0,0,0,0,,,,,5,3,23,0,522.8768989599994,None,d,0.5164012719997118,522.9768564570004,None,522.3766876530008,522.7935967490012,523.5105358740002,524.0102509469998,523.5105358740002,None,27,9,0,None,None,3,001,exponential,rgby,0.75-0.35,2021_May_17_1432,color_judgement_and_subjective_perception,2020.2.10,59.9628223303483,
1,0.75,testing,1000,1,,,,,,,,,0,0,0,0,,,,,6,0,24,1,524.6103918879999,None,d,0.590788794999753,524.7104730089995,None,524.1102480070003,524.5271946440007,525.3296885079999,525.8281602480001,525.3296885079999,None,0,30,0,None,None,3,001,exponential,rgby,0.75-0.35,2021_May_17_1432,color_judgement_and_subjective_perception,2020.2.10,59.9628223303483,
0,0.75,testing,1000,1,,,,,,,,,0,0,0,0,,,,,6,1,25,0,526.4280934070011,None,j,0.5649676550001459,526.5282921859998,None,525.9279047359996,526.3447882599994,527.111489758001,527.6117875420005,527.111489758001,None,26,9,0,None,None,3,001,exponential,rgby,0.75-0.35,2021_May_17_1432,color_judgement_and_subjective_perception,2020.2.10,59.9628223303483,
0,0.75,testing,1000,1,,,,,,,,,0,0,0,0,,,,,6,2,26,0,528.2119790910001,None,d,0.573457843000142,528.3118326370004,None,527.7116119359998,528.1286831769994,528.9134760220004,529.4120485839994,528.9134760220004,None,28,9,0,None,None,3,001,exponential,rgby,0.75-0.35,2021_May_17_1432,color_judgement_and_subjective_perception,2020.2.10,59.9628223303483,
2,0.75,testing,1000,1,,,,,,,,,0,0,0,0,,,,,6,3,27,2,530.0122346110002,None,None,-1,530.1121926350006,None,529.5118350510002,529.928919684,530.9967981789996,531.496492186001,530.9967981789996,None,0,0,44,None,None,3,001,exponential,rgby,0.75-0.35,2021_May_17_1432,color_judgement_and_subjective_perception,2020.2.10,59.9628223303483,
1,0.75,testing,1000,1,,,,,,,,,0,0,0,0,,,,,7,0,28,1,532.0965505580007,None,f,0.6725617949996376,532.1966975899995,None,531.596288443001,532.0131308140008,532.8984512280003,533.3968649899998,532.8984512280003,None,0,35,0,None,None,3,001,exponential,rgby,0.75-0.35,2021_May_17_1432,color_judgement_and_subjective_perception,2020.2.10,59.9628223303483,
0,0.75,testing,1000,1,,,,,,,,,0,0,0,0,,,,,7,1,29,0,533.9968890769997,None,d,0.7322687749983743,534.0969598169995,None,533.4967423420003,533.9135188710006,534.8468683600004,535.3312982030002,534.8468683600004,None,30,10,0,None,None,3,001,exponential,rgby,0.75-0.35,2021_May_17_1432,color_judgement_and_subjective_perception,2020.2.10,59.9628223303483,
0,0.75,testing,1000,1,,,,,,,,,0,0,0,0,,,,,7,2,30,0,535.9313384010002,None,d,0.4860109589990316,536.0312785360002,None,535.4310942520005,535.8481179520004,536.5478760330006,537.0483103790011,536.5478760330006,None,30,10,0,None,None,3,001,exponential,rgby,0.75-0.35,2021_May_17_1432,color_judgement_and_subjective_perception,2020.2.10,59.9628223303483,
3,0.75,testing,1000,1,,,,,,,,,0,0,0,0,,,,,7,3,31,3,537.6483322290005,None,f,0.512940463000632,537.748335788001,None,537.1479545729999,537.5650244740009,538.2833242960005,538.7816447059995,538.2833242960005,None,59,59,0,None,None,3,001,exponential,rgby,0.75-0.35,2021_May_17_1432,color_judgement_and_subjective_perception,2020.2.10,59.9628223303483,
2,0.75,testing,1000,1,,,,,,,,,0,0,0,0,,,,,8,0,32,2,539.3818257490002,None,j,0.6274207280002884,539.4817953069996,None,538.8815384499994,539.2984136440009,540.1336747500009,540.616322666001,540.1336747500009,None,0,0,48,None,None,3,001,exponential,rgby,0.75-0.35,2021_May_17_1432,color_judgement_and_subjective_perception,2020.2.10,59.9628223303483,
1,0.75,testing,1000,1,,,,,,,,,0,0,0,0,,,,,8,1,33,1,541.2162728380008,None,f,0.7130479879997438,541.3162338740003,None,540.7160243510007,541.1328120939997,542.0496234399998,542.549821646,542.0496234399998,None,0,39,0,None,None,3,001,exponential,rgby,0.75-0.35,2021_May_17_1432,color_judgement_and_subjective_perception,2020.2.10,59.9628223303483,
1,0.75,testing,1000,1,,,,,,,,,0,0,0,0,,,,,8,2,34,1,543.1498660420002,None,d,0.3713839439988078,543.2499267710009,None,542.6496941950008,543.0665902590008,543.6516710830001,544.1499432880009,543.6516710830001,None,0,37,0,None,None,3,001,exponential,rgby,0.75-0.35,2021_May_17_1432,color_judgement_and_subjective_perception,2020.2.10,59.9628223303483,
2,0.75,testing,1000,1,,,,,,,,,0,0,0,0,,,,,8,3,35,2,544.7501627229994,None,j,0.6672290770002292,544.8500258690001,None,544.2498490079997,544.6667486580009,545.536442949,546.0344064960009,545.536442949,None,0,0,50,None,None,3,001,exponential,rgby,0.75-0.35,2021_May_17_1432,color_judgement_and_subjective_perception,2020.2.10,59.9628223303483,
1,0.75,testing,1000,1,,,,,,,,,0,0,0,0,,,,,9,0,36,1,546.6344787470007,None,f,0.5748005810000905,546.734480698,None,546.1342639499999,546.5510837319998,547.3344761379994,547.8348721380007,547.3344761379994,None,0,40,0,None,None,3,001,exponential,rgby,0.75-0.35,2021_May_17_1432,color_judgement_and_subjective_perception,2020.2.10,59.9628223303483,
0,0.75,testing,1000,1,,,,,,,,,0,0,0,0,,,,,9,1,37,0,548.4348584279996,None,None,-1,548.5348156180007,None,547.9346560079994,548.3515752900003,549.437117296,549.9350410139996,549.437117296,None,30,10,0,None,None,3,001,exponential,rgby,0.75-0.35,2021_May_17_1432,color_judgement_and_subjective_perception,2020.2.10,59.9628223303483,
2,0.75,testing,1000,1,,,,,,,,,0,0,0,0,,,,,9,2,38,2,550.5193061970003,None,j,0.7778042099998856,550.6193595460009,None,550.034935650001,550.4360718280004,551.4208170309994,551.9195765069999,551.4208170309994,None,0,0,50,None,None,3,001,exponential,rgby,0.75-0.35,2021_May_17_1432,color_judgement_and_subjective_perception,2020.2.10,59.9628223303483,
1,0.75,testing,1000,1,,,,,,,,,0,0,0,0,,,,,9,3,39,1,552.519679459001,None,f,0.6014713100012159,552.6197895000005,None,552.0193200760004,552.4362856980006,553.2530416650006,553.7531262890006,553.2530416650006,None,0,42,0,None,None,3,001,exponential,rgby,0.75-0.35,2021_May_17_1432,color_judgement_and_subjective_perception,2020.2.10,59.9628223303483,
3,0.75,testing,1000,1,,,,,,,,,0,0,0,0,,,,,10,0,40,3,554.3531915929998,None,k,0.48812130899932527,554.4531807580006,None,553.852944702001,554.2698320609998,554.9700401459995,555.454267344001,554.9700401459995,None,63,63,0,None,None,3,001,exponential,rgby,0.75-0.35,2021_May_17_1432,color_judgement_and_subjective_perception,2020.2.10,59.9628223303483,
3,0.75,testing,1000,1,,,,,,,,,0,0,0,0,,,,,10,1,41,3,556.0540783729994,None,k,0.47486926000055973,556.154380983,None,555.5540656739995,555.9711138420007,556.6542250020011,557.1544842010007,556.6542250020011,None,63,63,0,None,None,3,001,exponential,rgby,0.75-0.35,2021_May_17_1432,color_judgement_and_subjective_perception,2020.2.10,59.9628223303483,
0,0.75,testing,1000,1,,,,,,,,,0,0,0,0,,,,,10,2,42,0,557.754563456001,None,d,0.47067142599917133,557.8545897340009,None,557.2542854969997,557.6713610410006,558.3546151709998,558.8547668980009,558.3546151709998,None,30,10,0,None,None,3,001,exponential,rgby,0.75-0.35,2021_May_17_1432,color_judgement_and_subjective_perception,2020.2.10,59.9628223303483,
2,0.75,testing,1000,1,,,,,,,,,0,0,0,0,,,,,10,3,43,2,559.4547303470008,None,j,0.5864632349985186,559.5548446810008,None,558.9544578630012,559.3714502559997,560.1712362870003,560.6559889609998,560.1712362870003,None,0,0,46,None,None,3,001,exponential,rgby,0.75-0.35,2021_May_17_1432,color_judgement_and_subjective_perception,2020.2.10,59.9628223303483,
3,0.75,testing,1000,1,,,,,,,,,0,0,0,0,,,,,11,0,44,3,561.2559740590004,None,f,0.5453245799999422,561.3559546279994,None,560.7557375729994,561.1726092259996,561.9240435869997,562.4228037690009,561.9240435869997,None,59,59,0,None,None,3,001,exponential,rgby,0.75-0.35,2021_May_17_1432,color_judgement_and_subjective_perception,2020.2.10,59.9628223303483,
2,0.75,testing,1000,1,,,,,,,,,0,0,0,0,,,,,11,1,45,2,563.0228309049999,None,j,0.5546274199987238,563.1226400320011,None,562.5225641119996,562.9396735320006,563.7079765540002,564.206431224,563.7079765540002,None,0,0,45,None,None,3,001,exponential,rgby,0.75-0.35,2021_May_17_1432,color_judgement_and_subjective_perception,2020.2.10,59.9628223303483,
3,0.75,testing,1000,1,,,,,,,,,0,0,0,0,,,,,11,2,46,3,564.8065664730002,None,k,0.5227433640011441,564.906546442,None,564.3061330670007,564.723135839,565.4573240949994,565.9575662620009,565.4573240949994,None,60,60,0,None,None,3,001,exponential,rgby,0.75-0.35,2021_May_17_1432,color_judgement_and_subjective_perception,2020.2.10,59.9628223303483,
1,0.75,testing,1000,1,,,,,,,,,0,0,0,0,,,,,11,3,47,1,566.5576401819999,None,f,0.4836658050007827,566.6575371199997,None,566.0572024409994,566.4742804550006,567.1742953379999,567.6745432309999,567.1742953379999,None,0,35,0,None,None,3,001,exponential,rgby,0.75-0.35,2021_May_17_1432,color_judgement_and_subjective_perception,2020.2.10,59.9628223303483,
2,0.75,testing,1000,1,,,,,,,,,0,0,0,0,,,,,12,0,48,2,568.2745697440005,None,j,0.478822745000798,568.3744904579999,None,567.774353140001,568.1912645339999,568.8745454140007,569.3745890250011,568.8745454140007,None,0,0,41,None,None,3,001,exponential,rgby,0.75-0.35,2021_May_17_1432,color_judgement_and_subjective_perception,2020.2.10,59.9628223303483,
0,0.75,testing,1000,1,,,,,,,,,0,0,0,0,,,,,12,1,49,0,569.9747357460001,None,j,0.634349440000733,570.0749009470001,None,569.4744980100004,569.8914213500011,570.7438089900006,571.2423915050003,570.7438089900006,None,26,9,0,None,None,3,001,exponential,rgby,0.75-0.35,2021_May_17_1432,color_judgement_and_subjective_perception,2020.2.10,59.9628223303483,
1,0.75,testing,1000,1,,,,,,,,,0,0,0,0,,,,,12,2,50,1,571.8424958899996,None,j,0.766636849999486,571.9426102979996,None,571.3422005930006,571.7591425600003,572.7265181620005,573.2261250600004,572.7265181620005,None,0,33,0,None,None,3,001,exponential,rgby,0.75-0.35,2021_May_17_1432,color_judgement_and_subjective_perception,2020.2.10,59.9628223303483,
2,0.75,testing,1000,1,,,,,,,,,0,0,0,0,,,,,12,3,51,2,573.8262398410006,None,j,0.8710937640007614,573.9262343850005,None,573.3260890029997,573.7429756630008,574.8280768189998,575.3104494260006,574.8280768189998,None,0,0,41,None,None,3,001,exponential,rgby,0.75-0.35,2021_May_17_1432,color_judgement_and_subjective_perception,2020.2.10,59.9628223303483,
1,0.75,testing,1000,1,,,,,,,,,0,0,0,0,,,,,13,0,52,1,575.9105124470007,None,f,0.6346504379998805,576.0106020710009,None,575.4104595950012,575.8273301339996,576.6786605600009,577.1774625170001,576.6786605600009,None,0,36,0,None,None,3,001,exponential,rgby,0.75-0.35,2021_May_17_1432,color_judgement_and_subjective_perception,2020.2.10,59.9628223303483,
0,0.75,testing,1000,1,,,,,,,,,0,0,0,0,,,,,13,1,53,0,577.7775487420004,None,d,0.31967682799950126,577.8775852039998,None,577.2772252840005,577.6943861069994,578.2277030420009,578.7277759049994,578.2277030420009,None,31,10,0,None,None,3,001,exponential,rgby,0.75-0.35,2021_May_17_1432,color_judgement_and_subjective_perception,2020.2.10,59.9628223303483,
3,0.75,testing,1000,1,,,,,,,,,0,0,0,0,,,,,13,2,54,3,579.327743494001,None,k,0.649534403000871,579.4277388310002,None,578.8276075530011,579.2444339699996,580.0945401219997,580.5790414380008,580.0945401219997,None,61,61,0,None,None,3,001,exponential,rgby,0.75-0.35,2021_May_17_1432,color_judgement_and_subjective_perception,2020.2.10,59.9628223303483,
2,0.75,testing,1000,1,,,,,,,,,0,0,0,0,,,,,13,3,55,2,581.1789466749997,None,None,-1,581.2787966550004,None,580.678525374,581.0956100019994,582.1795180600002,582.6792994520001,582.1795180600002,None,0,0,40,None,None,3,001,exponential,rgby,0.75-0.35,2021_May_17_1432,color_judgement_and_subjective_perception,2020.2.10,59.9628223303483,
3,0.75,testing,1000,1,,,,,,,,,0,0,0,0,,,,,14,0,56,3,583.2793932189998,None,None,-1,583.3794219730007,None,582.779080272001,583.1960264459995,584.202793505001,584.6962058730005,584.202793505001,None,60,60,0,None,None,3,001,exponential,rgby,0.75-0.35,2021_May_17_1432,color_judgement_and_subjective_perception,2020.2.10,59.9628223303483,
2,0.75,testing,1000,1,,,,,,,,,0,0,0,0,,,,,14,1,57,2,585.287623315,None,k,0.21654804999889166,585.3806049890009,None,584.7959577069996,585.2129274300005,585.6160767670008,586.1137567330006,585.6160767670008,None,0,0,43,None,None,3,001,exponential,rgby,0.75-0.35,2021_May_17_1432,color_judgement_and_subjective_perception,2020.2.10,59.9628223303483,
3,0.75,testing,1000,1,,,,,,,,,0,0,0,0,,,,,14,2,58,3,586.7139446609999,None,k,0.4073950239999249,586.8138945789997,None,586.2136578089994,586.6306102489998,587.2486826450004,587.7476128210001,587.2486826450004,None,63,63,0,None,None,3,001,exponential,rgby,0.75-0.35,2021_May_17_1432,color_judgement_and_subjective_perception,2020.2.10,59.9628223303483,
0,0.75,testing,1000,1,,,,,,,,,0,0,0,0,,,,,14,3,59,0,588.3476109330004,None,f,0.4935705110001436,588.447661567001,None,587.8474433629999,588.2642466279995,588.9653858969996,589.4644231430011,588.9653858969996,None,34,11,0,None,None,3,001,exponential,rgby,0.75-0.35,2021_May_17_1432,color_judgement_and_subjective_perception,2020.2.10,59.9628223303483,
0,0.75,testing,1000,1,,,,,,,,,0,0,0,0,,,,,15,0,60,0,590.0644342420001,None,d,0.7287384619994555,590.164442397001,None,589.5641283799996,589.9810878589997,590.916605882001,591.4153199989996,590.916605882001,None,36,12,0,None,None,3,001,exponential,rgby,0.75-0.35,2021_May_17_1432,color_judgement_and_subjective_perception,2020.2.10,59.9628223303483,
0,0.75,testing,1000,1,,,,,,,,,0,0,0,0,,,,,15,1,61,0,592.0155403850003,None,d,0.36188822599979176,592.1153925649996,None,591.515297164,591.9322487909994,592.4988349730011,592.9990871610007,592.4988349730011,None,38,13,0,None,None,3,001,exponential,rgby,0.75-0.35,2021_May_17_1432,color_judgement_and_subjective_perception,2020.2.10,59.9628223303483,
3,0.75,testing,1000,1,,,,,,,,,0,0,0,0,,,,,15,2,62,3,593.5991624819999,None,j,0.338093309001124,593.6992210509998,None,593.0990480230012,593.5159230749996,594.0673595869994,594.5660124500009,594.0673595869994,None,68,68,0,None,None,3,001,exponential,rgby,0.75-0.35,2021_May_17_1432,color_judgement_and_subjective_perception,2020.2.10,59.9628223303483,
2,0.75,testing,1000,1,,,,,,,,,0,0,0,0,,,,,15,3,63,2,595.166088506001,None,j,0.5151743259993964,595.2660815199997,None,594.6658340480008,595.0827810270002,595.8019615619996,596.3003894590001,595.8019615619996,None,0,0,50,None,None,3,001,exponential,rgby,0.75-0.35,2021_May_17_1432,color_judgement_and_subjective_perception,2020.2.10,59.9628223303483,
