color_idx_ind,target_acc,mode,response_deadline,block_number,trials_training.thisRepN,trials_training.thisTrialN,trials_training.thisN,trials_training.thisIndex,trials_training_deadline.thisRepN,trials_training_deadline.thisTrialN,trials_training_deadline.thisN,trials_training_deadline.thisIndex,blocks.thisRepN,blocks.thisTrialN,blocks.thisN,blocks.thisIndex,trials_staircase.thisRepN,trials_staircase.thisTrialN,trials_staircase.thisN,trials_staircase.thisIndex,trials.thisRepN,trials.thisTrialN,trials.thisN,trials.thisIndex,stimulus_ind.started,stimulus_ind.stopped,key_resp_ind.keys,key_resp_ind.rt,key_resp_ind.started,key_resp_ind.stopped,fixation_cross_1_ind.started,fixation_cross_1_ind.stopped,text.started,text.stopped,dummy_text.started,dummy_text.stopped,stim_ind_color_rgb_r,stim_ind_color_rgb_g,stim_ind_color_rgb_b,text_break_block.started,text_break_block.stopped,participant,session,accuracy_weighting,color_mapping,block_difficulties,date,expName,psychopyVersion,frameRate,
3,0.9,training,1000000000000,,0,0,0,0,,,,,,,,,,,,,,,,,73.91310579900164,None,k,1.1707403639993572,74.01309282300099,None,73.4155650620014,73.82968849900135,75.21606820300076,75.71418631699999,75.21606820300076,None,,,,,,4,001,exponential,rgby,0.35-0.75,2021_May_17_1622,color_judgement_and_subjective_perception,2020.2.10,60.044785604139754,
0,0.9,training,1000000000000,,0,1,1,1,,,,,,,,,,,,,,,,,76.3142223570012,None,d,1.1376394750004692,76.41422565700123,None,75.81422246300099,76.23094422500071,77.58102159300142,78.08117536999998,77.58102159300142,None,,,,,,4,001,exponential,rgby,0.35-0.75,2021_May_17_1622,color_judgement_and_subjective_perception,2020.2.10,60.044785604139754,
3,0.9,training,1000000000000,,0,2,2,2,,,,,,,,,,,,,,,,,78.68112344900146,None,k,0.7545702729985351,78.78129311500015,None,78.18126777600082,78.59790364600121,79.56471147600132,80.04902024100011,79.56471147600132,None,,,,,,4,001,exponential,rgby,0.35-0.75,2021_May_17_1622,color_judgement_and_subjective_perception,2020.2.10,60.044785604139754,
0,0.9,training,1000000000000,,0,3,3,3,,,,,,,,,,,,,,,,,80.64904707500136,None,d,0.4107845910002652,80.748983073001,None,80.14896228200087,80.56572285500079,81.18233342500025,81.68265101600082,81.18233342500025,None,,,,,,4,001,exponential,rgby,0.35-0.75,2021_May_17_1622,color_judgement_and_subjective_perception,2020.2.10,60.044785604139754,
1,0.9,training,1000000000000,,0,4,4,4,,,,,,,,,,,,,,,,,82.28285513300034,None,f,0.44893200200021965,82.38289943200107,None,81.78262153500145,82.19928285800052,82.84930723100115,83.34950430200115,82.84930723100115,None,,,,,,4,001,exponential,rgby,0.35-0.75,2021_May_17_1622,color_judgement_and_subjective_perception,2020.2.10,60.044785604139754,
2,0.9,training,1000000000000,,0,5,5,5,,,,,,,,,,,,,,,,,83.94955990500057,None,j,0.45421550500032026,84.04962207400058,None,83.44938641600129,83.8661985000017,84.53287669800011,85.01734270000088,84.53287669800011,None,,,,,,4,001,exponential,rgby,0.35-0.75,2021_May_17_1622,color_judgement_and_subjective_perception,2020.2.10,60.044785604139754,
3,0.9,training,1000000000000,,0,6,6,6,,,,,,,,,,,,,,,,,85.61725993400069,None,k,0.3226356870000018,85.71723614700022,None,85.11712427200109,85.53409214800013,86.06727464000141,86.56740132200139,86.06727464000141,None,,,,,,4,001,exponential,rgby,0.35-0.75,2021_May_17_1622,color_judgement_and_subjective_perception,2020.2.10,60.044785604139754,
0,0.9,training,1000000000000,,0,7,7,7,,,,,,,,,,,,,,,,,87.16771619800056,None,d,0.4682122230005916,87.26761982700009,None,86.66737489200023,87.08431567200023,87.76750479100156,88.26771083400126,87.76750479100156,None,,,,,,4,001,exponential,rgby,0.35-0.75,2021_May_17_1622,color_judgement_and_subjective_perception,2020.2.10,60.044785604139754,
1,0.9,training,1000000000000,,0,8,8,8,,,,,,,,,,,,,,,,,88.8677405010003,None,j,0.44011014200077625,88.96775254000022,None,88.36763317000077,88.78444717999992,89.43446272700021,89.91920703400137,89.43446272700021,None,,,,,,4,001,exponential,rgby,0.35-0.75,2021_May_17_1622,color_judgement_and_subjective_perception,2020.2.10,60.044785604139754,
0,0.9,training,1000000000000,,0,9,9,9,,,,,,,,,,,,,,,,,90.51888169900121,None,d,1.0370870040005684,90.61875113099995,None,90.01890770400132,90.43551722900156,91.68552975700004,92.1858231310016,91.68552975700004,None,,,,,,4,001,exponential,rgby,0.35-0.75,2021_May_17_1622,color_judgement_and_subjective_perception,2020.2.10,60.044785604139754,
2,0.9,training,1000000000000,,0,10,10,10,,,,,,,,,,,,,,,,,92.78608937400168,None,j,0.7298577239998849,92.88600275099998,None,92.2859115629999,92.70263570600036,93.63587008300055,94.1361726690011,93.63587008300055,None,,,,,,4,001,exponential,rgby,0.35-0.75,2021_May_17_1622,color_judgement_and_subjective_perception,2020.2.10,60.044785604139754,
1,0.9,training,1000000000000,,0,11,11,11,,,,,,,,,,,,,,,,,94.73613544700129,None,f,0.3876991849992919,94.83615565800028,None,94.23614984400047,94.652786001001,95.25373786199998,95.75375816100131,95.25373786199998,None,,,,,,4,001,exponential,rgby,0.35-0.75,2021_May_17_1622,color_judgement_and_subjective_perception,2020.2.10,60.044785604139754,
3,0.9,training,1000000000000,,0,12,12,12,,,,,,,,,,,,,,,,,96.35388571400108,None,k,1.0978164009993634,96.45400528200116,None,95.85376465500121,96.27070986900071,97.57078446500054,98.070851081,97.57078446500054,None,,,,,,4,001,exponential,rgby,0.35-0.75,2021_May_17_1622,color_judgement_and_subjective_perception,2020.2.10,60.044785604139754,
1,0.9,training,1000000000000,,0,13,13,13,,,,,,,,,,,,,,,,,98.67107093900086,None,f,1.2368463479997445,98.77098610300163,None,98.17081608600165,98.58772457900159,100.03860167099992,100.53907780300142,100.03860167099992,None,,,,,,4,001,exponential,rgby,0.35-0.75,2021_May_17_1622,color_judgement_and_subjective_perception,2020.2.10,60.044785604139754,
2,0.9,training,1000000000000,,0,14,14,14,,,,,,,,,,,,,,,,,101.13888909000161,None,j,0.5529173530012486,101.23895093900137,None,100.63868177200129,101.0554471989999,101.82216733099995,102.32252480100033,101.82216733099995,None,,,,,,4,001,exponential,rgby,0.35-0.75,2021_May_17_1622,color_judgement_and_subjective_perception,2020.2.10,60.044785604139754,
3,0.9,training,1000000000000,,0,15,15,15,,,,,,,,,,,,,,,,,102.92260607300159,None,k,0.4415014700007305,103.02236085000004,None,102.42265303000022,102.83908268900086,103.48904322800081,103.98914789400078,103.48904322800081,None,,,,,,4,001,exponential,rgby,0.35-0.75,2021_May_17_1622,color_judgement_and_subjective_perception,2020.2.10,60.044785604139754,
2,0.9,training,1000000000000,,0,16,16,16,,,,,,,,,,,,,,,,,104.58936404199994,None,j,1.1905978909999249,104.68927367400102,None,104.08915686300134,104.50611021100121,105.90703512800064,106.4071939280002,105.90703512800064,None,,,,,,4,001,exponential,rgby,0.35-0.75,2021_May_17_1622,color_judgement_and_subjective_perception,2020.2.10,60.044785604139754,
3,0.9,training,1000000000000,,0,17,17,17,,,,,,,,,,,,,,,,,107.0072712250003,None,k,0.5485929299993586,107.10730062700168,None,106.50706996300141,106.92382962600095,107.6738203040004,108.17412391000107,107.6738203040004,None,,,,,,4,001,exponential,rgby,0.35-0.75,2021_May_17_1622,color_judgement_and_subjective_perception,2020.2.10,60.044785604139754,
1,0.9,training,1000000000000,,0,18,18,18,,,,,,,,,,,,,,,,,108.77419782100151,None,f,0.4536361709997436,108.87419869800033,None,108.27402171800168,108.69107798600089,109.35756316100014,109.85762025400072,109.35756316100014,None,,,,,,4,001,exponential,rgby,0.35-0.75,2021_May_17_1622,color_judgement_and_subjective_perception,2020.2.10,60.044785604139754,
2,0.9,training,1000000000000,,0,19,19,19,,,,,,,,,,,,,,,,,110.44205953600067,None,j,0.4578610579992528,110.54196995100028,None,109.9421851320003,110.35862191300112,111.02520182100125,111.52549422700031,111.02520182100125,None,,,,,,4,001,exponential,rgby,0.35-0.75,2021_May_17_1622,color_judgement_and_subjective_perception,2020.2.10,60.044785604139754,
3,0.9,training,1000000000000,,0,20,20,20,,,,,,,,,,,,,,,,,112.12555499600057,None,k,0.5341794659998413,112.22558158900029,None,111.6253885920014,112.04233109900088,112.79229249900163,113.29245226500097,112.79229249900163,None,,,,,,4,001,exponential,rgby,0.35-0.75,2021_May_17_1622,color_judgement_and_subjective_perception,2020.2.10,60.044785604139754,
1,0.9,training,1000000000000,,0,21,21,21,,,,,,,,,,,,,,,,,113.89250217000153,None,f,0.46332086800066463,113.99254446000123,None,113.39234902000135,113.8090608520015,114.47569103300157,114.96005827299996,114.47569103300157,None,,,,,,4,001,exponential,rgby,0.35-0.75,2021_May_17_1622,color_judgement_and_subjective_perception,2020.2.10,60.044785604139754,
0,0.9,training,1000000000000,,0,22,22,22,,,,,,,,,,,,,,,,,115.56013672500012,None,d,0.3715537909993145,115.66026734500156,None,115.06041046500104,115.47698889999992,116.06010650200005,116.56030937200012,116.06010650200005,None,,,,,,4,001,exponential,rgby,0.35-0.75,2021_May_17_1622,color_judgement_and_subjective_perception,2020.2.10,60.044785604139754,
1,0.9,training,1000000000000,,0,23,23,23,,,,,,,,,,,,,,,,,117.16049708600076,None,j,0.47521809300087625,117.26060402000076,None,116.66037593700094,117.07716604000052,117.76061085600122,118.26060053500078,117.76061085600122,None,,,,,,4,001,exponential,rgby,0.35-0.75,2021_May_17_1622,color_judgement_and_subjective_perception,2020.2.10,60.044785604139754,
3,0.9,training,1000000000000,,0,24,24,24,,,,,,,,,,,,,,,,,118.86085913400166,None,k,0.56688706299974,118.96085201300048,None,118.36060974900101,118.77735124300125,119.56072032700104,120.04491782200057,119.56072032700104,None,,,,,,4,001,exponential,rgby,0.35-0.75,2021_May_17_1622,color_judgement_and_subjective_perception,2020.2.10,60.044785604139754,
2,0.9,training,1000000000000,,0,25,25,25,,,,,,,,,,,,,,,,,120.64508005900097,None,j,0.5188054419995751,120.74506679600017,None,120.14498649500092,120.5619762160004,121.29508847100078,121.79535016200134,121.29508847100078,None,,,,,,4,001,exponential,rgby,0.35-0.75,2021_May_17_1622,color_judgement_and_subjective_perception,2020.2.10,60.044785604139754,
0,0.9,training,1000000000000,,0,26,26,26,,,,,,,,,,,,,,,,,122.39549363200058,None,d,0.4563344430007419,122.49552702200162,None,121.89538267300122,122.31220407399996,122.97862100400016,123.4789866430001,122.97862100400016,None,,,,,,4,001,exponential,rgby,0.35-0.75,2021_May_17_1622,color_judgement_and_subjective_perception,2020.2.10,60.044785604139754,
2,0.9,training,1000000000000,,0,27,27,27,,,,,,,,,,,,,,,,,124.0791013900016,None,j,0.5326048949991673,124.1792210520016,None,123.57889177900142,123.995617210001,124.72902666500158,125.21331361800003,124.72902666500158,None,,,,,,4,001,exponential,rgby,0.35-0.75,2021_May_17_1622,color_judgement_and_subjective_perception,2020.2.10,60.044785604139754,
0,0.9,training,1000000000000,,0,28,28,28,,,,,,,,,,,,,,,,,125.81340910100153,None,d,0.5343845269999292,125.91344770500109,None,125.31315645900031,125.7301483350002,126.48003987000084,126.98034234600163,126.48003987000084,None,,,,,,4,001,exponential,rgby,0.35-0.75,2021_May_17_1622,color_judgement_and_subjective_perception,2020.2.10,60.044785604139754,
1,0.9,training,1000000000000,,0,29,29,29,,,,,,,,,,,,,,,,,127.58050924500094,None,f,0.8073609530001704,127.68045378300121,None,127.08007342400015,127.49696786700042,128.51378839000063,128.94723646800048,128.51378839000063,None,,,,,,4,001,exponential,rgby,0.35-0.75,2021_May_17_1622,color_judgement_and_subjective_perception,2020.2.10,60.044785604139754,
0,0.9,training,1000000000000,,0,30,30,30,,,,,,,,,,,,,,,,,129.54742877600074,None,d,0.44062687899895536,129.6472406990015,None,129.04716448600084,129.46418737800013,130.11489904600057,130.61515533200145,130.11489904600057,None,,,,,,4,001,exponential,rgby,0.35-0.75,2021_May_17_1622,color_judgement_and_subjective_perception,2020.2.10,60.044785604139754,
2,0.9,training,1000000000000,,0,31,31,31,,,,,,,,,,,,,,,,,131.21503661499992,None,j,0.5485272810001334,131.31526881900027,None,130.71485890300028,131.13158789299996,131.88167230399995,132.38208773800034,131.88167230399995,None,,,,,,4,001,exponential,rgby,0.35-0.75,2021_May_17_1622,color_judgement_and_subjective_perception,2020.2.10,60.044785604139754,
3,0.9,training,1000,,,,,,0,0,0,0,,,,,,,,,,,,,136.71676886200112,None,k,0.6150173139994877,136.8168541670002,None,136.21902208700158,136.63332993600125,137.45017426200138,137.95044277800116,137.45017426200138,None,,,,,,4,001,exponential,rgby,0.35-0.75,2021_May_17_1622,color_judgement_and_subjective_perception,2020.2.10,60.044785604139754,
0,0.9,training,1000,,,,,,0,1,1,1,,,,,,,,,,,,,138.55038648000118,None,d,0.3974744400002237,138.65039228200112,None,138.05037519800135,138.4670549470011,139.06707471200025,139.56712715499998,139.06707471200025,None,,,,,,4,001,exponential,rgby,0.35-0.75,2021_May_17_1622,color_judgement_and_subjective_perception,2020.2.10,60.044785604139754,
2,0.9,training,1000,,,,,,0,2,2,2,,,,,,,,,,,,,140.15146029700009,None,j,0.5003564130001905,140.2514214390012,None,139.66719677900073,140.0680326900001,140.7847715930002,141.28494570800103,140.7847715930002,None,,,,,,4,001,exponential,rgby,0.35-0.75,2021_May_17_1622,color_judgement_and_subjective_perception,2020.2.10,60.044785604139754,
1,0.9,training,1000,,,,,,0,3,3,3,,,,,,,,,,,,,141.8850460900012,None,f,0.37476125700050034,141.98508623199996,None,141.38489217999995,141.80184637999992,142.38503699100147,142.88518410000142,142.38503699100147,None,,,,,,4,001,exponential,rgby,0.35-0.75,2021_May_17_1622,color_judgement_and_subjective_perception,2020.2.10,60.044785604139754,
0,0.9,training,1000,,,,,,0,4,4,4,,,,,,,,,,,,,143.48528723900017,None,d,0.4385568389989203,143.58530825800153,None,142.98524872600137,143.4018101420006,144.05182897800114,144.55205082500106,144.05182897800114,None,,,,,,4,001,exponential,rgby,0.35-0.75,2021_May_17_1622,color_judgement_and_subjective_perception,2020.2.10,60.044785604139754,
2,0.9,training,1000,,,,,,0,5,5,5,,,,,,,,,,,,,145.13623377400108,None,j,0.48333835800076486,145.23643042200092,None,144.65204221600106,145.05314139300026,145.73629624200112,146.23647795200122,145.73629624200112,None,,,,,,4,001,exponential,rgby,0.35-0.75,2021_May_17_1622,color_judgement_and_subjective_perception,2020.2.10,60.044785604139754,
0,0.9,training,1000,,,,,,0,6,6,6,,,,,,,,,,,,,146.83682008800133,None,d,0.48700819299847353,146.9368214040005,None,146.33649792800134,146.7533938330016,147.45331434400032,147.95362882900008,147.45331434400032,None,,,,,,4,001,exponential,rgby,0.35-0.75,2021_May_17_1622,color_judgement_and_subjective_perception,2020.2.10,60.044785604139754,
2,0.9,training,1000,,,,,,0,7,7,7,,,,,,,,,,,,,148.5536338080001,None,j,0.4102595250005834,148.65357044800112,None,148.05340584600162,148.47034273600002,149.0868840710009,149.58719565000138,149.0868840710009,None,,,,,,4,001,exponential,rgby,0.35-0.75,2021_May_17_1622,color_judgement_and_subjective_perception,2020.2.10,60.044785604139754,
1,0.9,training,1000,,,,,,0,8,8,8,,,,,,,,,,,,,150.17139661200054,None,f,0.6564733020004496,150.27138978400035,None,149.68701369600058,150.0880713380011,150.95463033600026,151.45479195100052,150.95463033600026,None,,,,,,4,001,exponential,rgby,0.35-0.75,2021_May_17_1622,color_judgement_and_subjective_perception,2020.2.10,60.044785604139754,
0,0.9,training,1000,,,,,,0,9,9,9,,,,,,,,,,,,,152.05499161100124,None,d,0.4767548660001921,152.15507990200058,None,151.55483021500004,151.97158364900133,152.65489205000085,153.1549389110005,152.65489205000085,None,,,,,,4,001,exponential,rgby,0.35-0.75,2021_May_17_1622,color_judgement_and_subjective_perception,2020.2.10,60.044785604139754,
3,0.9,training,1000,,,,,,0,10,10,10,,,,,,,,,,,,,153.75518965800075,None,k,0.44874765800159366,153.8551360190013,None,153.25498133400106,153.6717795880013,154.32170040000165,154.82189819900123,154.32170040000165,None,,,,,,4,001,exponential,rgby,0.35-0.75,2021_May_17_1622,color_judgement_and_subjective_perception,2020.2.10,60.044785604139754,
2,0.9,training,1000,,,,,,0,11,11,11,,,,,,,,,,,,,155.40629413200077,None,j,0.5255961020011455,155.5062500340009,None,154.92057557200133,155.32284856800106,156.05628494800112,156.5563799670017,156.05628494800112,None,,,,,,4,001,exponential,rgby,0.35-0.75,2021_May_17_1622,color_judgement_and_subjective_perception,2020.2.10,60.044785604139754,
1,0.9,training,1000,,,,,,0,12,12,12,,,,,,,,,,,,,157.15662296200026,None,f,0.46323540699995647,157.25661968900022,None,156.6564433520016,157.0731336610006,157.7398843080009,158.23989068600167,157.7398843080009,None,,,,,,4,001,exponential,rgby,0.35-0.75,2021_May_17_1622,color_judgement_and_subjective_perception,2020.2.10,60.044785604139754,
0,0.9,training,1000,,,,,,0,13,13,13,,,,,,,,,,,,,158.84005616300055,None,d,0.2517485000007582,158.94008308000048,None,158.33988687900091,158.75671311299993,159.22343091200128,159.7237681630013,159.22343091200128,None,,,,,,4,001,exponential,rgby,0.35-0.75,2021_May_17_1622,color_judgement_and_subjective_perception,2020.2.10,60.044785604139754,
3,0.9,training,1000,,,,,,0,14,14,14,,,,,,,,,,,,,160.30766468000002,None,j,0.3600231479995273,160.40788908100149,None,159.82356189300117,160.22457715200107,160.79110356599995,161.291222156,160.79110356599995,None,,,,,,4,001,exponential,rgby,0.35-0.75,2021_May_17_1622,color_judgement_and_subjective_perception,2020.2.10,60.044785604139754,
2,0.9,training,1000,,,,,,0,15,15,15,,,,,,,,,,,,,161.89139961900037,None,f,0.5605188740009908,161.99133933700068,None,161.39120189500136,161.80803111500063,162.5748344270014,163.07491312000093,162.5748344270014,None,,,,,,4,001,exponential,rgby,0.35-0.75,2021_May_17_1622,color_judgement_and_subjective_perception,2020.2.10,60.044785604139754,
0,0.9,training,1000,,,,,,0,16,16,16,,,,,,,,,,,,,163.67506005700125,None,d,0.4487746929989953,163.77507773100115,None,163.17483615900164,163.59144237700093,164.24158467100096,164.7418803620003,164.24158467100096,None,,,,,,4,001,exponential,rgby,0.35-0.75,2021_May_17_1622,color_judgement_and_subjective_perception,2020.2.10,60.044785604139754,
2,0.9,training,1000,,,,,,0,17,17,17,,,,,,,,,,,,,165.3261680700016,None,None,-1,165.42626087999997,None,164.8417288260007,165.24273303800146,166.3426891830004,166.84296129700124,166.3426891830004,None,,,,,,4,001,exponential,rgby,0.35-0.75,2021_May_17_1622,color_judgement_and_subjective_perception,2020.2.10,60.044785604139754,
3,0.9,training,1000,,,,,,0,18,18,18,,,,,,,,,,,,,167.44321496000157,None,k,0.8725306469987117,167.54330325900082,None,166.9429687790016,167.35982873600005,168.44313146200147,168.9433904030011,168.44313146200147,None,,,,,,4,001,exponential,rgby,0.35-0.75,2021_May_17_1622,color_judgement_and_subjective_perception,2020.2.10,60.044785604139754,
1,0.9,training,1000,,,,,,0,19,19,19,,,,,,,,,,,,,169.54350683800112,None,f,0.4364304329992592,169.6434343150013,None,169.04323432900128,169.46009809099996,170.1109057370013,170.61103152000032,170.1109057370013,None,,,,,,4,001,exponential,rgby,0.35-0.75,2021_May_17_1622,color_judgement_and_subjective_perception,2020.2.10,60.044785604139754,
0,0.9,training,1000,,,,,,0,20,20,20,,,,,,,,,,,,,171.21105733100012,None,d,0.3287596049995045,171.31111828900066,None,170.71104879800077,171.12764602100106,171.6611171930017,172.16129228499994,171.6611171930017,None,,,,,,4,001,exponential,rgby,0.35-0.75,2021_May_17_1622,color_judgement_and_subjective_perception,2020.2.10,60.044785604139754,
1,0.9,training,1000,,,,,,0,21,21,21,,,,,,,,,,,,,172.76161155000045,None,f,0.3062746099985816,172.86156888000005,None,172.26135877700108,172.67814690500018,173.19460998000068,173.6947572070003,173.19460998000068,None,,,,,,4,001,exponential,rgby,0.35-0.75,2021_May_17_1622,color_judgement_and_subjective_perception,2020.2.10,60.044785604139754,
2,0.9,training,1000,,,,,,0,22,22,22,,,,,,,,,,,,,174.29493145800006,None,j,0.3888915610004915,174.39495171700037,None,173.79481982200014,174.211690954,174.8116266950001,175.29589776900139,174.8116266950001,None,,,,,,4,001,exponential,rgby,0.35-0.75,2021_May_17_1622,color_judgement_and_subjective_perception,2020.2.10,60.044785604139754,
1,0.9,training,1000,,,,,,0,23,23,23,,,,,,,,,,,,,175.8959060440011,None,f,0.3960110399984842,175.99584267400132,None,175.3958793970014,175.81272490000083,176.41270206300032,176.91293654000037,176.41270206300032,None,,,,,,4,001,exponential,rgby,0.35-0.75,2021_May_17_1622,color_judgement_and_subjective_perception,2020.2.10,60.044785604139754,
3,0.9,training,1000,,,,,,0,24,24,24,,,,,,,,,,,,,177.51304387800155,None,k,0.4588368620006804,177.61301936200107,None,177.01284618800128,177.4297906820011,178.09611590500026,178.59637702700093,178.09611590500026,None,,,,,,4,001,exponential,rgby,0.35-0.75,2021_May_17_1622,color_judgement_and_subjective_perception,2020.2.10,60.044785604139754,
2,0.9,training,1000,,,,,,0,25,25,25,,,,,,,,,,,,,179.19653176000065,None,j,0.32729844599998614,179.29653379699994,None,178.6963793220002,179.1132289750003,179.64652404400113,180.13097422600003,179.64652404400113,None,,,,,,4,001,exponential,rgby,0.35-0.75,2021_May_17_1622,color_judgement_and_subjective_perception,2020.2.10,60.044785604139754,
1,0.9,training,1000,,,,,,0,26,26,26,,,,,,,,,,,,,180.73101462900013,None,f,0.5210173450013826,180.8308407000004,None,180.2309486130016,180.6475031200007,181.38085431500076,181.8811125280008,181.38085431500076,None,,,,,,4,001,exponential,rgby,0.35-0.75,2021_May_17_1622,color_judgement_and_subjective_perception,2020.2.10,60.044785604139754,
0,0.9,training,1000,,,,,,0,27,27,27,,,,,,,,,,,,,182.48127861800094,None,d,0.28247949599972344,182.58135154900083,None,181.98094455400133,182.3979108800013,182.88122822300102,183.38135921600042,182.88122822300102,None,,,,,,4,001,exponential,rgby,0.35-0.75,2021_May_17_1622,color_judgement_and_subjective_perception,2020.2.10,60.044785604139754,
2,0.9,training,1000,,,,,,0,28,28,28,,,,,,,,,,,,,183.98140314600096,None,j,0.44643024900142336,184.08142130800115,None,183.48122501500075,183.89812173500104,184.54806306499995,185.03254027600087,184.54806306499995,None,,,,,,4,001,exponential,rgby,0.35-0.75,2021_May_17_1622,color_judgement_and_subjective_perception,2020.2.10,60.044785604139754,
3,0.9,training,1000,,,,,,0,29,29,29,,,,,,,,,,,,,185.63269648900132,None,k,0.5313957519992982,185.73244721000083,None,185.13246148100006,185.54928225300137,186.28248760300085,186.7825203020002,186.28248760300085,None,,,,,,4,001,exponential,rgby,0.35-0.75,2021_May_17_1622,color_judgement_and_subjective_perception,2020.2.10,60.044785604139754,
1,0.9,training,1000,,,,,,0,30,30,30,,,,,,,,,,,,,187.38292466500025,None,f,0.3809623619999911,187.48293605000072,None,186.88278466200063,187.29950289299995,187.88261160300135,188.38292497300063,187.88261160300135,None,,,,,,4,001,exponential,rgby,0.35-0.75,2021_May_17_1622,color_judgement_and_subjective_perception,2020.2.10,60.044785604139754,
3,0.9,training,1000,,,,,,0,31,31,31,,,,,,,,,,,,,188.98287620200063,None,j,0.4848710400001437,189.08293865800078,None,188.4828887270014,188.89970392900068,189.5996094150014,190.08411037600126,189.5996094150014,None,,,,,,4,001,exponential,rgby,0.35-0.75,2021_May_17_1622,color_judgement_and_subjective_perception,2020.2.10,60.044785604139754,
2,0.9,training,1000,,,,,,0,32,32,32,,,,,,,,,,,,,190.68411926699991,None,None,-1,190.7840359360016,None,190.1842105320011,190.60077027200168,191.70077160300025,192.20107388700126,191.70077160300025,None,,,,,,4,001,exponential,rgby,0.35-0.75,2021_May_17_1622,color_judgement_and_subjective_perception,2020.2.10,60.044785604139754,
3,0.9,training,1000,,,,,,0,33,33,33,,,,,,,,,,,,,192.80119872700016,None,k,0.7386517670001922,192.9012118490009,None,192.30089219100046,192.71782304100088,193.66769234500134,194.1679708520005,193.66769234500134,None,,,,,,4,001,exponential,rgby,0.35-0.75,2021_May_17_1622,color_judgement_and_subjective_perception,2020.2.10,60.044785604139754,
0,0.9,training,1000,,,,,,0,34,34,34,,,,,,,,,,,,,194.76792533700063,None,d,0.2917719549986941,194.86807264100025,None,194.26799790600126,194.6847380800009,195.1853185100008,195.68563014700158,195.1853185100008,None,,,,,,4,001,exponential,rgby,0.35-0.75,2021_May_17_1622,color_judgement_and_subjective_perception,2020.2.10,60.044785604139754,
1,0.9,training,1000,,,,,,0,35,35,35,,,,,,,,,,,,,196.28581400200164,None,f,0.4380261870010145,196.38577157500004,None,195.78554283500125,196.20243891300015,196.85247125800015,197.35278606800057,196.85247125800015,None,,,,,,4,001,exponential,rgby,0.35-0.75,2021_May_17_1622,color_judgement_and_subjective_perception,2020.2.10,60.044785604139754,
0,0.9,training,1000,,,,,,0,36,36,36,,,,,,,,,,,,,197.9527664410016,None,d,0.41091823100032343,198.05281952900077,None,197.4527510550015,197.8694757510002,198.4860939600003,198.98613769400072,198.4860939600003,None,,,,,,4,001,exponential,rgby,0.35-0.75,2021_May_17_1622,color_judgement_and_subjective_perception,2020.2.10,60.044785604139754,
2,0.9,training,1000,,,,,,0,37,37,37,,,,,,,,,,,,,199.58626283800004,None,j,0.8414863079997303,199.68635850400096,None,199.08609406600044,199.50305084400134,200.5538153739999,201.05395715300074,200.5538153739999,None,,,,,,4,001,exponential,rgby,0.35-0.75,2021_May_17_1622,color_judgement_and_subjective_perception,2020.2.10,60.044785604139754,
3,0.9,training,1000,,,,,,0,38,38,38,,,,,,,,,,,,,201.6541399580001,None,k,0.40577612500055693,201.75406916300017,None,201.1539556380012,201.57080148000023,202.18739915200058,202.68761655800154,202.18739915200058,None,,,,,,4,001,exponential,rgby,0.35-0.75,2021_May_17_1622,color_judgement_and_subjective_perception,2020.2.10,60.044785604139754,
2,0.9,training,1000,,,,,,0,39,39,39,,,,,,,,,,,,,203.28764689900163,None,j,0.29224880499896244,203.3875804899999,None,202.78761538400067,203.20431799200014,203.704259741,204.20449808100057,203.704259741,None,,,,,,4,001,exponential,rgby,0.35-0.75,2021_May_17_1622,color_judgement_and_subjective_perception,2020.2.10,60.044785604139754,
3,0.9,training,1000,,,,,,0,40,40,40,,,,,,,,,,,,,204.80452282600163,None,k,0.5193087499992544,204.90455790300075,None,204.30454086200007,204.72132124600103,205.4554079870013,205.95551977800096,205.4554079870013,None,,,,,,4,001,exponential,rgby,0.35-0.75,2021_May_17_1622,color_judgement_and_subjective_perception,2020.2.10,60.044785604139754,
1,0.9,training,1000,,,,,,0,41,41,41,,,,,,,,,,,,,206.55554439800108,None,f,0.3201893170007679,206.65564232500037,None,206.05550958700042,206.47233445100028,207.00579513900084,207.50594849000117,207.00579513900084,None,,,,,,4,001,exponential,rgby,0.35-0.75,2021_May_17_1622,color_judgement_and_subjective_perception,2020.2.10,60.044785604139754,
0,0.9,training,1000,,,,,,0,42,42,42,,,,,,,,,,,,,208.10587117100113,None,d,0.25781976399957784,208.20602443500138,None,207.60588569800166,208.02265289200113,208.48912174500038,208.9893100090012,208.48912174500038,None,,,,,,4,001,exponential,rgby,0.35-0.75,2021_May_17_1622,color_judgement_and_subjective_perception,2020.2.10,60.044785604139754,
3,0.9,training,1000,,,,,,0,43,43,43,,,,,,,,,,,,,209.58950928600098,None,k,0.44634879699879093,209.68951550400016,None,209.08930981200137,209.50610422800128,210.15699752799992,210.6572279640004,210.15699752799992,None,,,,,,4,001,exponential,rgby,0.35-0.75,2021_May_17_1622,color_judgement_and_subjective_perception,2020.2.10,60.044785604139754,
0,0.9,training,1000,,,,,,0,44,44,44,,,,,,,,,,,,,211.25719277200005,None,d,0.4585468810000748,211.35727922300066,None,210.75703226299993,211.17387865500132,211.84044351800003,212.34078821700132,211.84044351800003,None,,,,,,4,001,exponential,rgby,0.35-0.75,2021_May_17_1622,color_judgement_and_subjective_perception,2020.2.10,60.044785604139754,
1,0.9,training,1000,,,,,,0,45,45,45,,,,,,,,,,,,,212.94085093300055,None,f,0.36685805799970694,213.04090518000157,None,212.44075452400102,212.857671011001,213.44073594300062,213.94090363900068,213.44073594300062,None,,,,,,4,001,exponential,rgby,0.35-0.75,2021_May_17_1622,color_judgement_and_subjective_perception,2020.2.10,60.044785604139754,
3,0.9,training,1000,,,,,,0,46,46,46,,,,,,,,,,,,,214.54100154500156,None,k,0.7987820920006925,214.64105374700011,None,214.04091796800094,214.4577539820002,215.4587172820011,215.958754270001,215.4587172820011,None,,,,,,4,001,exponential,rgby,0.35-0.75,2021_May_17_1622,color_judgement_and_subjective_perception,2020.2.10,60.044785604139754,
1,0.9,training,1000,,,,,,0,47,47,47,,,,,,,,,,,,,216.55885502800083,None,j,0.6529986280002049,216.65887454100084,None,216.058722709,216.47549250700104,217.34211146400048,217.8424653689999,217.34211146400048,None,,,,,,4,001,exponential,rgby,0.35-0.75,2021_May_17_1622,color_judgement_and_subjective_perception,2020.2.10,60.044785604139754,
1,0.9,training,1000,,,,,,0,48,48,48,,,,,,,,,,,,,218.44243789300162,None,f,0.6735629110007721,218.5422811510016,None,217.9422716600002,218.35913127000094,219.24239363300148,219.7427585580008,219.24239363300148,None,,,,,,4,001,exponential,rgby,0.35-0.75,2021_May_17_1622,color_judgement_and_subjective_perception,2020.2.10,60.044785604139754,
3,0.9,training,1000,,,,,,0,49,49,49,,,,,,,,,,,,,220.3270417399999,None,k,0.7167485410009249,220.4269905050005,None,219.84255814400058,220.24353882200012,221.17697379000128,221.67717090000042,221.17697379000128,None,,,,,,4,001,exponential,rgby,0.35-0.75,2021_May_17_1622,color_judgement_and_subjective_perception,2020.2.10,60.044785604139754,
1,0.9,training,1000,,,,,,0,50,50,50,,,,,,,,,,,,,222.2772621790009,None,f,0.5265994560013496,222.37728035600048,None,221.77699952400144,222.19411161800053,222.92727934700088,223.42739447500026,222.92727934700088,None,,,,,,4,001,exponential,rgby,0.35-0.75,2021_May_17_1622,color_judgement_and_subjective_perception,2020.2.10,60.044785604139754,
3,0.9,training,1000,,,,,,0,51,51,51,,,,,,,,,,,,,224.02733995800008,None,k,0.3845076870002231,224.12734023600024,None,223.52727209800105,223.94420797400016,224.54413875200044,225.02842262200102,224.54413875200044,None,,,,,,4,001,exponential,rgby,0.35-0.75,2021_May_17_1622,color_judgement_and_subjective_perception,2020.2.10,60.044785604139754,
0,0.9,training,1000,,,,,,0,52,52,52,,,,,,,,,,,,,225.62836308200167,None,d,0.47140618600133166,225.72848228600014,None,225.12842315200032,225.54518515600103,226.22839502100032,226.72863559000143,226.22839502100032,None,,,,,,4,001,exponential,rgby,0.35-0.75,2021_May_17_1622,color_judgement_and_subjective_perception,2020.2.10,60.044785604139754,
1,0.9,training,1000,,,,,,0,53,53,53,,,,,,,,,,,,,227.32889028499994,None,f,0.4828746669991233,227.42895055000008,None,226.82870905900018,227.24548454100113,227.9288295690003,228.42885191999994,227.9288295690003,None,,,,,,4,001,exponential,rgby,0.35-0.75,2021_May_17_1622,color_judgement_and_subjective_perception,2020.2.10,60.044785604139754,
2,0.9,training,1000,,,,,,0,54,54,54,,,,,,,,,,,,,229.02906516200164,None,j,0.4707825949990365,229.12905028100067,None,228.52895604300102,228.94551050600057,229.6291240260016,230.11341587400057,229.6291240260016,None,,,,,,4,001,exponential,rgby,0.35-0.75,2021_May_17_1622,color_judgement_and_subjective_perception,2020.2.10,60.044785604139754,
3,0.9,training,1000,,,,,,0,55,55,55,,,,,,,,,,,,,230.71358696400057,None,k,0.3144340999988344,230.81341223800155,None,230.21328114400058,230.63003714600018,231.14678013100092,231.64701594600047,231.14678013100092,None,,,,,,4,001,exponential,rgby,0.35-0.75,2021_May_17_1622,color_judgement_and_subjective_perception,2020.2.10,60.044785604139754,
1,0.9,training,1000,,,,,,0,56,56,56,,,,,,,,,,,,,232.24720534900007,None,f,0.4847115020002093,232.34713790100068,None,231.7468454580012,232.16369192100137,232.86373712000022,233.36384912700123,232.86373712000022,None,,,,,,4,001,exponential,rgby,0.35-0.75,2021_May_17_1622,color_judgement_and_subjective_perception,2020.2.10,60.044785604139754,
0,0.9,training,1000,,,,,,0,57,57,57,,,,,,,,,,,,,233.96390533900012,None,d,0.5279250639996462,234.06385798500014,None,233.46374795000156,233.88067648600008,234.61415865300114,235.09836678900137,234.61415865300114,None,,,,,,4,001,exponential,rgby,0.35-0.75,2021_May_17_1622,color_judgement_and_subjective_perception,2020.2.10,60.044785604139754,
0,0.9,training,1000,,,,,,0,58,58,58,,,,,,,,,,,,,235.69834926800104,None,d,0.5773508559996117,235.7983964970008,None,235.19842281000092,235.61507639699994,236.39830171800168,236.8986129320001,236.39830171800168,None,,,,,,4,001,exponential,rgby,0.35-0.75,2021_May_17_1622,color_judgement_and_subjective_perception,2020.2.10,60.044785604139754,
0,0.9,training,1000,,,,,,0,59,59,59,,,,,,,,,,,,,237.49880432700047,None,d,0.32097838499976206,237.59885893300088,None,236.99847596900145,237.41548169599992,237.9486844560015,238.44889335300104,237.9486844560015,None,,,,,,4,001,exponential,rgby,0.35-0.75,2021_May_17_1622,color_judgement_and_subjective_perception,2020.2.10,60.044785604139754,
3,0.9,training,1000,,,,,,0,60,60,60,,,,,,,,,,,,,239.04892756200024,None,k,0.3468733069985319,239.1489916900009,None,238.5487992140006,238.96559189900108,239.5155053310009,239.99991590600075,239.5155053310009,None,,,,,,4,001,exponential,rgby,0.35-0.75,2021_May_17_1622,color_judgement_and_subjective_perception,2020.2.10,60.044785604139754,
3,0.9,training,1000,,,,,,0,61,61,61,,,,,,,,,,,,,240.5999457329999,None,k,0.5077425990002666,240.7000958610006,None,240.0998591180014,240.51658239900098,241.2331899790006,241.7335596970006,241.2331899790006,None,,,,,,4,001,exponential,rgby,0.35-0.75,2021_May_17_1622,color_judgement_and_subjective_perception,2020.2.10,60.044785604139754,
2,0.9,training,1000,,,,,,0,62,62,62,,,,,,,,,,,,,242.33373657800075,None,j,0.3181398540000373,242.43370640100147,None,241.83346425300078,242.25016821400095,242.783496551001,243.283680980001,242.783496551001,None,,,,,,4,001,exponential,rgby,0.35-0.75,2021_May_17_1622,color_judgement_and_subjective_perception,2020.2.10,60.044785604139754,
3,0.9,training,1000,,,,,,0,63,63,63,,,,,,,,,,,,,243.88373823800066,None,k,0.4402412550007284,243.98362540400012,None,243.3835532789999,243.80045745500138,244.45043728600103,244.94933306700113,244.45043728600103,None,,,,,,4,001,exponential,rgby,0.35-0.75,2021_May_17_1622,color_judgement_and_subjective_perception,2020.2.10,60.044785604139754,
2,0.9,training,1000,,,,,,0,64,64,64,,,,,,,,,,,,,245.53480899200076,None,j,0.7009906550010783,245.6348657030012,None,245.03483636800047,245.45147106400145,246.36801573500088,246.868559939001,246.36801573500088,None,,,,,,4,001,exponential,rgby,0.35-0.75,2021_May_17_1622,color_judgement_and_subjective_perception,2020.2.10,60.044785604139754,
2,0.9,training,1000,,,,,,0,65,65,65,,,,,,,,,,,,,247.46858453999994,None,j,0.34322642700135475,247.5686325280003,None,246.96829307100052,247.38519403700047,247.935105691,248.43539634800072,247.935105691,None,,,,,,4,001,exponential,rgby,0.35-0.75,2021_May_17_1622,color_judgement_and_subjective_perception,2020.2.10,60.044785604139754,
0,0.9,training,1000,,,,,,0,66,66,66,,,,,,,,,,,,,249.03507366500162,None,d,0.3845532369996363,249.13517732800028,None,248.53522719800094,248.95188034300008,249.5518144000016,250.0363875810017,249.5518144000016,None,,,,,,4,001,exponential,rgby,0.35-0.75,2021_May_17_1622,color_judgement_and_subjective_perception,2020.2.10,60.044785604139754,
3,0.9,training,1000,,,,,,0,67,67,67,,,,,,,,,,,,,250.63659554400147,None,k,0.41559529500045755,250.7362789100007,None,250.13637621100133,250.55329348600026,251.16975358400123,251.66993037400061,251.16975358400123,None,,,,,,4,001,exponential,rgby,0.35-0.75,2021_May_17_1622,color_judgement_and_subjective_perception,2020.2.10,60.044785604139754,
3,0.9,training,1000,,,,,,0,68,68,68,,,,,,,,,,,,,252.26996583000073,None,k,0.5097136439999304,252.37014593500135,None,251.7699368220001,252.18678541900044,252.9033726230009,253.40368946800118,252.9033726230009,None,,,,,,4,001,exponential,rgby,0.35-0.75,2021_May_17_1622,color_judgement_and_subjective_perception,2020.2.10,60.044785604139754,
2,0.9,training,1000,,,,,,0,69,69,69,,,,,,,,,,,,,254.00361063200035,None,j,0.3123879329996271,254.10350504000053,None,253.50349908300086,253.92022995800107,254.43691774800027,254.9371046660017,254.43691774800027,None,,,,,,4,001,exponential,rgby,0.35-0.75,2021_May_17_1622,color_judgement_and_subjective_perception,2020.2.10,60.044785604139754,
2,0.9,training,1000,,,,,,0,70,70,70,,,,,,,,,,,,,255.52158665000024,None,j,0.45837092800138635,255.62144998000076,None,255.02131503800047,255.43816225500086,256.10473701200135,256.6048672300003,256.10473701200135,None,,,,,,4,001,exponential,rgby,0.35-0.75,2021_May_17_1622,color_judgement_and_subjective_perception,2020.2.10,60.044785604139754,
0,0.9,training,1000,,,,,,0,71,71,71,,,,,,,,,,,,,257.2050948080014,None,d,0.51081988399892,257.3049763710005,None,256.704685146,257.1217333380009,257.8382204440004,258.33857402500144,257.8382204440004,None,,,,,,4,001,exponential,rgby,0.35-0.75,2021_May_17_1622,color_judgement_and_subjective_perception,2020.2.10,60.044785604139754,
0,0.9,training,1000,,,,,,0,72,72,72,,,,,,,,,,,,,258.9386007390003,None,d,0.46550388100149576,259.03831960200114,None,258.4383718170011,258.85527116900084,259.5219372820011,260.00633321700116,259.5219372820011,None,,,,,,4,001,exponential,rgby,0.35-0.75,2021_May_17_1622,color_judgement_and_subjective_perception,2020.2.10,60.044785604139754,
3,0.9,training,1000,,,,,,0,73,73,73,,,,,,,,,,,,,260.60634080599993,None,None,-1,260.7064210340013,None,260.10622166400026,260.52316985200014,261.6231114930015,262.1232920250004,261.6231114930015,None,,,,,,4,001,exponential,rgby,0.35-0.75,2021_May_17_1622,color_judgement_and_subjective_perception,2020.2.10,60.044785604139754,
0,0.9,training,1000,,,,,,0,74,74,74,,,,,,,,,,,,,262.7233941180002,None,d,0.65644698899996,262.8233934250002,None,262.2232474760003,262.64000619200124,263.50659328800066,264.0069131850014,263.50659328800066,None,,,,,,4,001,exponential,rgby,0.35-0.75,2021_May_17_1622,color_judgement_and_subjective_perception,2020.2.10,60.044785604139754,
2,0.9,training,1000,,,,,,0,75,75,75,,,,,,,,,,,,,264.60702343200137,None,j,0.42882448399905115,264.70694782100145,None,264.10679548200096,264.5234613270004,265.1576985820011,265.65778482800124,265.1576985820011,None,,,,,,4,001,exponential,rgby,0.35-0.75,2021_May_17_1622,color_judgement_and_subjective_perception,2020.2.10,60.044785604139754,
2,0.9,training,1000,,,,,,0,76,76,76,,,,,,,,,,,,,266.2578527170008,None,j,0.3379281320012524,266.3579299640005,None,265.75800627900026,266.1744602580002,266.7246205930005,267.22492974000124,266.7246205930005,None,,,,,,4,001,exponential,rgby,0.35-0.75,2021_May_17_1622,color_judgement_and_subjective_perception,2020.2.10,60.044785604139754,
1,0.9,training,1000,,,,,,0,77,77,77,,,,,,,,,,,,,267.82491070300057,None,f,0.27482837100069446,267.9250133410005,None,267.3248354740008,267.74159561300075,268.22468919700077,268.7250584780013,268.22468919700077,None,,,,,,4,001,exponential,rgby,0.35-0.75,2021_May_17_1622,color_judgement_and_subjective_perception,2020.2.10,60.044785604139754,
1,0.9,training,1000,,,,,,0,78,78,78,,,,,,,,,,,,,269.3250487430014,None,j,0.37472933000026387,269.42510534300163,None,268.8249350320002,269.24173372400037,269.82506815000124,270.30952789300136,269.82506815000124,None,,,,,,4,001,exponential,rgby,0.35-0.75,2021_May_17_1622,color_judgement_and_subjective_perception,2020.2.10,60.044785604139754,
3,0.9,training,1000,,,,,,0,79,79,79,,,,,,,,,,,,,270.9096047080002,None,k,0.790269248000186,271.00959079900167,None,270.40939038000033,270.8261024200001,271.8262375060003,272.32645937300003,271.8262375060003,None,,,,,,4,001,exponential,rgby,0.35-0.75,2021_May_17_1622,color_judgement_and_subjective_perception,2020.2.10,60.044785604139754,
0,0.9,training,1000,,,,,,0,80,80,80,,,,,,,,,,,,,272.9266550250013,None,d,0.7170122860006813,273.02678754200133,None,272.42648723599996,272.84302788700006,273.77631153900074,274.2768058420006,273.77631153900074,None,,,,,,4,001,exponential,rgby,0.35-0.75,2021_May_17_1622,color_judgement_and_subjective_perception,2020.2.10,60.044785604139754,
1,0.9,training,1000,,,,,,0,81,81,81,,,,,,,,,,,,,274.87692471100127,None,f,0.5678373190003185,274.9680369050002,None,274.3766250940007,274.79351494300136,275.56092842900034,276.06101892100014,275.56092842900034,None,,,,,,4,001,exponential,rgby,0.35-0.75,2021_May_17_1622,color_judgement_and_subjective_perception,2020.2.10,60.044785604139754,
1,0.9,training,1000,,,,,,0,82,82,82,,,,,,,,,,,,,276.66117867400135,None,f,0.5106845459995384,276.76117636900017,None,276.1609899660016,276.5779024520016,277.2946705430004,277.7947187590016,277.2946705430004,None,,,,,,4,001,exponential,rgby,0.35-0.75,2021_May_17_1622,color_judgement_and_subjective_perception,2020.2.10,60.044785604139754,
2,0.9,training,1000,,,,,,0,83,83,83,,,,,,,,,,,,,278.39483993900103,None,j,0.3849783200003003,278.4948857190011,None,277.894700412,278.3113883470014,278.9112785800007,279.4116339700013,278.9112785800007,None,,,,,,4,001,exponential,rgby,0.35-0.75,2021_May_17_1622,color_judgement_and_subjective_perception,2020.2.10,60.044785604139754,
0,0.9,training,1000,,,,,,0,84,84,84,,,,,,,,,,,,,279.99603324300006,None,d,0.6318763420003961,280.095984638001,None,279.5116885719999,279.9282390850003,280.74597508400075,281.246063695,280.74597508400075,None,,,,,,4,001,exponential,rgby,0.35-0.75,2021_May_17_1622,color_judgement_and_subjective_perception,2020.2.10,60.044785604139754,
2,0.9,training,1000,,,,,,0,85,85,85,,,,,,,,,,,,,281.84614957300073,None,j,0.5334602559996711,281.9462523530001,None,281.34603471600167,281.7629181850007,282.51289827300025,283.0130852150014,282.51289827300025,None,,,,,,4,001,exponential,rgby,0.35-0.75,2021_May_17_1622,color_judgement_and_subjective_perception,2020.2.10,60.044785604139754,
1,0.9,training,1000,,,,,,0,86,86,86,,,,,,,,,,,,,283.6131758570009,None,f,0.4627873619992897,283.7130858220007,None,283.1129046470014,283.52979845900154,284.19642714400106,284.6966817800003,284.19642714400106,None,,,,,,4,001,exponential,rgby,0.35-0.75,2021_May_17_1622,color_judgement_and_subjective_perception,2020.2.10,60.044785604139754,
2,0.9,training,1000,,,,,,0,87,87,87,,,,,,,,,,,,,285.28096370800085,None,j,0.35505858000033186,285.38079583000035,None,284.7965921210016,285.19777021200025,285.76419626900133,286.2642984710001,285.76419626900133,None,,,,,,4,001,exponential,rgby,0.35-0.75,2021_May_17_1622,color_judgement_and_subjective_perception,2020.2.10,60.044785604139754,
2,0.9,training,1000,,,,,,0,88,88,88,,,,,,,,,,,,,286.864406789,None,j,0.5633319319986185,286.96452120200047,None,286.3642374780011,286.7810711230013,287.5477581570012,288.0479120120017,287.5477581570012,None,,,,,,4,001,exponential,rgby,0.35-0.75,2021_May_17_1622,color_judgement_and_subjective_perception,2020.2.10,60.044785604139754,
1,0.9,training,1000,,,,,,0,89,89,89,,,,,,,,,,,,,288.64803919299993,None,f,0.4198863000001438,288.7479522100002,None,288.1478877080008,288.56470443700164,289.1981545150011,289.69825997500084,289.1981545150011,None,,,,,,4,001,exponential,rgby,0.35-0.75,2021_May_17_1622,color_judgement_and_subjective_perception,2020.2.10,60.044785604139754,
3,0.9,training,1000,,,,,,0,90,90,90,,,,,,,,,,,,,290.2823499340011,None,k,0.433332155998869,290.38245158500104,None,289.7982002740009,290.19909215900043,290.83236932100044,291.33260227200117,290.83236932100044,None,,,,,,4,001,exponential,rgby,0.35-0.75,2021_May_17_1622,color_judgement_and_subjective_perception,2020.2.10,60.044785604139754,
3,0.9,training,1000,,,,,,0,91,91,91,,,,,,,,,,,,,291.9327264600015,None,k,0.3750716239992471,292.0327700070011,None,291.43262385100024,291.84942023200165,292.43273840300026,292.9329753150014,292.43273840300026,None,,,,,,4,001,exponential,rgby,0.35-0.75,2021_May_17_1622,color_judgement_and_subjective_perception,2020.2.10,60.044785604139754,
1,0.9,training,1000,,,,,,0,92,92,92,,,,,,,,,,,,,293.53278848100126,None,f,0.7667991079997591,293.6329294140014,None,293.03282747600133,293.4497156940015,294.43298290200073,294.9330570940001,294.43298290200073,None,,,,,,4,001,exponential,rgby,0.35-0.75,2021_May_17_1622,color_judgement_and_subjective_perception,2020.2.10,60.044785604139754,
0,0.9,training,1000,,,,,,0,93,93,93,,,,,,,,,,,,,295.51768068100137,None,d,0.3102306939999835,295.61758699300117,None,295.0173692870012,295.43402771100045,295.95079926200015,296.4509330010005,295.95079926200015,None,,,,,,4,001,exponential,rgby,0.35-0.75,2021_May_17_1622,color_judgement_and_subjective_perception,2020.2.10,60.044785604139754,
0,0.9,training,1000,,,,,,0,94,94,94,,,,,,,,,,,,,297.0510768540007,None,d,0.2969302380006411,297.15093258600064,None,296.5508414930009,296.9677367590011,297.4675909030011,297.9678048900005,297.4675909030011,None,,,,,,4,001,exponential,rgby,0.35-0.75,2021_May_17_1622,color_judgement_and_subjective_perception,2020.2.10,60.044785604139754,
1,0.9,training,1000,,,,,,0,95,95,95,,,,,,,,,,,,,298.56791860500016,None,f,0.36390767699958815,298.6679468279999,None,298.0677152070002,298.48445633200026,299.0511012830011,299.55124737000006,299.0511012830011,None,,,,,,4,001,exponential,rgby,0.35-0.75,2021_May_17_1622,color_judgement_and_subjective_perception,2020.2.10,60.044785604139754,
0,0.35,testing,1000,1,,,,,,,,,0,0,0,0,0,0,0,0,,,,,305.30403272200056,None,None,-1,305.40385936500024,None,304.8214397260017,305.2206593280007,306.3204867460008,306.8207729600017,306.3204867460008,None,27,9,0,,,4,001,exponential,rgby,0.35-0.75,2021_May_17_1622,color_judgement_and_subjective_perception,2020.2.10,60.044785604139754,
3,0.35,testing,1000,1,,,,,,,,,0,0,0,0,0,1,1,3,,,,,307.4209958070005,None,d,0.6228978989984171,307.520934229,None,306.9208279880004,307.3375401860012,308.1709993460008,308.67084410900134,308.1709993460008,None,38,38,0,,,4,001,exponential,rgby,0.35-0.75,2021_May_17_1622,color_judgement_and_subjective_perception,2020.2.10,60.044785604139754,
1,0.35,testing,1000,1,,,,,,,,,0,0,0,0,0,2,2,1,,,,,309.2710309210015,None,f,0.2444589829992765,309.3713129450007,None,308.7710681080007,309.1877884180012,309.63781287800157,310.1219479320007,309.63781287800157,None,0,25,0,,,4,001,exponential,rgby,0.35-0.75,2021_May_17_1622,color_judgement_and_subjective_perception,2020.2.10,60.044785604139754,
2,0.35,testing,1000,1,,,,,,,,,0,0,0,0,0,3,3,2,,,,,310.7221979450005,None,j,0.6898413549988618,310.82201513400105,None,310.2219783190012,310.6389251890014,311.53887500100063,312.0390672700014,311.53887500100063,None,0,0,22,,,4,001,exponential,rgby,0.35-0.75,2021_May_17_1622,color_judgement_and_subjective_perception,2020.2.10,60.044785604139754,
0,0.35,testing,1000,1,,,,,,,,,0,0,0,0,1,0,4,0,,,,,312.63922660200114,None,k,0.7245540609983436,312.73929460600084,None,312.1389738000016,312.5557766010006,313.4890272880002,313.98934865000047,313.4890272880002,None,28,9,0,,,4,001,exponential,rgby,0.35-0.75,2021_May_17_1622,color_judgement_and_subjective_perception,2020.2.10,60.044785604139754,
2,0.35,testing,1000,1,,,,,,,,,0,0,0,0,1,1,5,2,,,,,314.5894152290002,None,None,-1,314.68961927200144,None,314.0892251510013,314.50613793900084,315.5901824749999,316.09045451100064,315.5901824749999,None,0,0,21,,,4,001,exponential,rgby,0.35-0.75,2021_May_17_1622,color_judgement_and_subjective_perception,2020.2.10,60.044785604139754,
1,0.35,testing,1000,1,,,,,,,,,0,0,0,0,1,2,6,1,,,,,316.690729553,None,j,0.4971493819994066,316.79070016600053,None,316.1903472820013,316.60722709700167,317.30725409800107,317.8074762360011,317.30725409800107,None,0,22,0,,,4,001,exponential,rgby,0.35-0.75,2021_May_17_1622,color_judgement_and_subjective_perception,2020.2.10,60.044785604139754,
3,0.35,testing,1000,1,,,,,,,,,0,0,0,0,1,3,7,3,,,,,318.4074736580005,None,f,0.21228809700005513,318.5074725760005,None,317.90748368800087,318.324212724001,318.74076321400025,319.2410580020005,318.74076321400025,None,39,39,0,,,4,001,exponential,rgby,0.35-0.75,2021_May_17_1622,color_judgement_and_subjective_perception,2020.2.10,60.044785604139754,
0,0.35,testing,1000,1,,,,,,,,,0,0,0,0,2,0,8,0,,,,,319.84114365700043,None,d,0.6588558960011142,319.94101587300065,None,319.3409005270005,319.75783244300146,320.6251256180003,321.12540914000056,320.6251256180003,None,31,10,0,,,4,001,exponential,rgby,0.35-0.75,2021_May_17_1622,color_judgement_and_subjective_perception,2020.2.10,60.044785604139754,
2,0.35,testing,1000,1,,,,,,,,,0,0,0,0,2,1,9,2,,,,,321.72548091499993,None,None,-1,321.8254489890005,None,321.22528122900076,321.6421852660005,322.74226332000035,323.2423918230015,322.74226332000035,None,0,0,24,,,4,001,exponential,rgby,0.35-0.75,2021_May_17_1622,color_judgement_and_subjective_perception,2020.2.10,60.044785604139754,
3,0.35,testing,1000,1,,,,,,,,,0,0,0,0,2,2,10,3,,,,,323.8425190530015,None,None,-1,323.94248042300023,None,323.34236816200064,323.7592287380012,324.8592370570004,325.34356253200167,324.8592370570004,None,41,41,0,,,4,001,exponential,rgby,0.35-0.75,2021_May_17_1622,color_judgement_and_subjective_perception,2020.2.10,60.044785604139754,
1,0.35,testing,1000,1,,,,,,,,,0,0,0,0,2,3,11,1,,,,,325.94362684000043,None,d,0.6122003210002731,326.043625065,None,325.44357552900146,325.86023157100135,326.676703739,327.1772878669999,326.676703739,None,0,26,0,,,4,001,exponential,rgby,0.35-0.75,2021_May_17_1622,color_judgement_and_subjective_perception,2020.2.10,60.044785604139754,
3,0.35,testing,1000,1,,,,,,,,,0,0,0,0,3,0,12,3,,,,,327.77735044400106,None,f,0.27455380100036564,327.8773070790012,None,327.27720387200134,327.69404613500046,328.1771541630005,328.677303800001,328.1771541630005,None,44,44,0,,,4,001,exponential,rgby,0.35-0.75,2021_May_17_1622,color_judgement_and_subjective_perception,2020.2.10,60.044785604139754,
0,0.35,testing,1000,1,,,,,,,,,0,0,0,0,3,1,13,0,,,,,329.2776583400009,None,j,0.1903211940007168,329.3775250790004,None,328.7771593200014,329.19414071400024,329.594065487001,330.0785832540005,329.594065487001,None,35,12,0,,,4,001,exponential,rgby,0.35-0.75,2021_May_17_1622,color_judgement_and_subjective_perception,2020.2.10,60.044785604139754,
2,0.35,testing,1000,1,,,,,,,,,0,0,0,0,3,2,14,2,,,,,330.6784726599999,None,j,0.8851729279995197,330.7786794980002,None,330.17832287200144,330.59527064300164,331.6951687410001,332.19550479700047,331.6951687410001,None,0,0,30,,,4,001,exponential,rgby,0.35-0.75,2021_May_17_1622,color_judgement_and_subjective_perception,2020.2.10,60.044785604139754,
1,0.35,testing,1000,1,,,,,,,,,0,0,0,0,3,3,15,1,,,,,332.79576720500154,None,j,0.560288311999102,332.89557924100154,None,332.2953700470007,332.71228996300124,333.4786400540015,333.979062159,333.4786400540015,None,0,31,0,,,4,001,exponential,rgby,0.35-0.75,2021_May_17_1622,color_judgement_and_subjective_perception,2020.2.10,60.044785604139754,
1,0.35,testing,1000,1,,,,,,,,,0,0,0,0,4,0,16,1,,,,,334.57902003800154,None,f,0.7929452630014566,334.67890755200096,None,334.0788313970006,334.49576904600144,335.4966189780007,335.9968948040005,335.4966189780007,None,0,33,0,,,4,001,exponential,rgby,0.35-0.75,2021_May_17_1622,color_judgement_and_subjective_perception,2020.2.10,60.044785604139754,
2,0.35,testing,1000,1,,,,,,,,,0,0,0,0,4,1,17,2,,,,,336.5968594800015,None,j,0.6948844739999913,336.69698061300005,None,336.0968638250015,336.5136841100011,337.4137026190001,337.9139009120008,337.4137026190001,None,0,0,30,,,4,001,exponential,rgby,0.35-0.75,2021_May_17_1622,color_judgement_and_subjective_perception,2020.2.10,60.044785604139754,
3,0.35,testing,1000,1,,,,,,,,,0,0,0,0,4,2,18,3,,,,,338.51391607799997,None,f,0.5378987370004324,338.6139655930001,None,338.01385339900116,338.4303763330008,339.172234357,339.66407927900036,339.172234357,None,47,47,0,,,4,001,exponential,rgby,0.35-0.75,2021_May_17_1622,color_judgement_and_subjective_perception,2020.2.10,60.044785604139754,
0,0.35,testing,1000,1,,,,,,,,,0,0,0,0,4,3,19,0,,,,,340.2482588990006,None,j,0.8914812900002289,340.3483538550008,None,339.76405049000095,340.164917995,341.2649453140002,341.7652031960006,341.2649453140002,None,36,12,0,,,4,001,exponential,rgby,0.35-0.75,2021_May_17_1622,color_judgement_and_subjective_perception,2020.2.10,60.044785604139754,
1,0.35,testing,1000,1,,,,,,,,,0,0,0,0,5,0,20,1,,,,,342.3653123740005,None,j,0.7025357200000144,342.465275980001,None,341.8651213050016,342.28202671100007,343.1986035400005,343.6987974399999,343.1986035400005,None,0,30,0,,,4,001,exponential,rgby,0.35-0.75,2021_May_17_1622,color_judgement_and_subjective_perception,2020.2.10,60.044785604139754,
2,0.35,testing,1000,1,,,,,,,,,0,0,0,0,5,1,21,2,,,,,344.29892163000113,None,j,0.8168649949984683,344.39893163500165,None,343.7988274870004,344.2155149980008,345.23311180100063,345.7332307350007,345.23311180100063,None,0,0,29,,,4,001,exponential,rgby,0.35-0.75,2021_May_17_1622,color_judgement_and_subjective_perception,2020.2.10,60.044785604139754,
3,0.35,testing,1000,1,,,,,,,,,0,0,0,0,5,2,22,3,,,,,346.33339608200004,None,f,0.47847039199950814,346.4333929930017,None,345.8333003660009,346.24989698600075,346.9333043030001,347.4336640620004,346.9333043030001,None,48,48,0,,,4,001,exponential,rgby,0.35-0.75,2021_May_17_1622,color_judgement_and_subjective_perception,2020.2.10,60.044785604139754,
0,0.35,testing,1000,1,,,,,,,,,0,0,0,0,5,3,23,0,,,,,348.0336626290009,None,None,-1,348.1336651500005,None,347.53355339300106,347.9505327120005,349.05033759900107,349.5503264120016,349.05033759900107,None,39,13,0,,,4,001,exponential,rgby,0.35-0.75,2021_May_17_1622,color_judgement_and_subjective_perception,2020.2.10,60.044785604139754,
1,0.35,testing,1000,1,,,,,,,,,0,0,0,0,6,0,24,1,,,,,350.1348637400006,None,f,0.8050915179992444,350.2347541170002,None,349.65051042600135,350.05141813200134,351.06813318700006,351.56824128800145,351.06813318700006,None,0,33,0,,,4,001,exponential,rgby,0.35-0.75,2021_May_17_1622,color_judgement_and_subjective_perception,2020.2.10,60.044785604139754,
2,0.35,testing,1000,1,,,,,,,,,0,0,0,0,6,1,25,2,,,,,352.16856948200075,None,j,0.8831699750007829,352.26869805000024,None,351.66831362800076,352.0851577120011,353.16853436400015,353.6687018390003,353.16853436400015,None,0,0,28,,,4,001,exponential,rgby,0.35-0.75,2021_May_17_1622,color_judgement_and_subjective_perception,2020.2.10,60.044785604139754,
0,0.35,testing,1000,1,,,,,,,,,0,0,0,0,6,2,26,0,,,,,354.26885038399996,None,None,-1,354.3688569640017,None,353.76867605500047,354.18539190699994,355.26972415599994,355.7698296970011,355.26972415599994,None,39,13,0,,,4,001,exponential,rgby,0.35-0.75,2021_May_17_1622,color_judgement_and_subjective_perception,2020.2.10,60.044785604139754,
3,0.35,testing,1000,1,,,,,,,,,0,0,0,0,6,3,27,3,,,,,356.3698235470001,None,f,0.38588580999930855,356.4699870610002,None,355.8696564810016,356.2864410840011,356.8863607600015,357.38687262500025,356.8863607600015,None,48,48,0,,,4,001,exponential,rgby,0.35-0.75,2021_May_17_1622,color_judgement_and_subjective_perception,2020.2.10,60.044785604139754,
3,0.35,testing,1000,1,,,,,,,,,0,0,0,0,7,0,28,3,,,,,357.9867601950009,None,f,0.4249424959998578,358.0869255030011,None,357.48660345100143,357.9035199660011,358.5367756270007,359.03697542100053,358.5367756270007,None,50,50,0,,,4,001,exponential,rgby,0.35-0.75,2021_May_17_1622,color_judgement_and_subjective_perception,2020.2.10,60.044785604139754,
1,0.35,testing,1000,1,,,,,,,,,0,0,0,0,7,1,29,1,,,,,359.63715620900075,None,d,0.4387789699994755,359.737103499001,None,359.13687162099995,359.55382651000036,360.20453884500057,360.7047161210012,360.20453884500057,None,0,31,0,,,4,001,exponential,rgby,0.35-0.75,2021_May_17_1622,color_judgement_and_subjective_perception,2020.2.10,60.044785604139754,
2,0.35,testing,1000,1,,,,,,,,,0,0,0,0,7,2,30,2,,,,,361.3048179610014,None,j,0.7950855389990465,361.404781317,None,360.804645178001,361.2213130020009,362.22145404,362.72174008600086,362.22145404,None,0,0,28,,,4,001,exponential,rgby,0.35-0.75,2021_May_17_1622,color_judgement_and_subjective_perception,2020.2.10,60.044785604139754,
0,0.35,testing,1000,1,,,,,,,,,0,0,0,0,7,3,31,0,,,,,363.3218188310002,None,k,0.45799824400091893,363.4218591910012,None,362.8216482550015,363.2382235390014,363.90498126500097,364.40534963700156,363.90498126500097,None,41,14,0,,,4,001,exponential,rgby,0.35-0.75,2021_May_17_1622,color_judgement_and_subjective_perception,2020.2.10,60.044785604139754,
2,0.35,testing,1000,1,,,,,,,,,0,0,0,0,8,0,32,2,,,,,364.9966513010004,None,None,-1,365.0895860820001,None,364.505202104001,364.92206889000045,366.0061318320004,366.5064198020009,366.0061318320004,None,0,0,27,,,4,001,exponential,rgby,0.35-0.75,2021_May_17_1622,color_judgement_and_subjective_perception,2020.2.10,60.044785604139754,
0,0.35,testing,1000,1,,,,,,,,,0,0,0,0,8,1,33,0,,,,,367.1066136870013,None,j,0.4173324159983167,367.20645628700004,None,366.6063372010012,367.0232900830015,367.65657468000063,368.1567310490009,367.65657468000063,None,44,15,0,,,4,001,exponential,rgby,0.35-0.75,2021_May_17_1622,color_judgement_and_subjective_perception,2020.2.10,60.044785604139754,
1,0.35,testing,1000,1,,,,,,,,,0,0,0,0,8,2,34,1,,,,,368.7568891080009,None,f,0.4789246929994988,368.85681993100116,None,368.2566397620012,368.6734638100006,369.3566851430005,369.856957592001,369.3566851430005,None,0,35,0,,,4,001,exponential,rgby,0.35-0.75,2021_May_17_1622,color_judgement_and_subjective_perception,2020.2.10,60.044785604139754,
3,0.35,testing,1000,1,,,,,,,,,0,0,0,0,8,3,35,3,,,,,370.4412028710012,None,f,0.466791202999957,370.54109006600083,None,369.956970397001,370.3577733460006,371.0243374870006,371.52445879900006,371.0243374870006,None,54,54,0,,,4,001,exponential,rgby,0.35-0.75,2021_May_17_1622,color_judgement_and_subjective_perception,2020.2.10,60.044785604139754,
1,0.35,testing,1000,1,,,,,,,,,0,0,0,0,9,0,36,1,,,,,372.12460453600033,None,f,0.695029421000072,372.2246654590017,None,371.624481705001,372.0412889440013,372.9413463010005,373.44166176,372.9413463010005,None,0,34,0,,,4,001,exponential,rgby,0.35-0.75,2021_May_17_1622,color_judgement_and_subjective_perception,2020.2.10,60.044785604139754,
0,0.35,testing,1000,1,,,,,,,,,0,0,0,0,9,1,37,0,,,,,374.0416565020005,None,d,0.7540450229989801,374.1418161700003,None,373.5414550430014,373.95833211300123,374.9251655830012,375.4094696410011,374.9251655830012,None,45,15,0,,,4,001,exponential,rgby,0.35-0.75,2021_May_17_1622,color_judgement_and_subjective_perception,2020.2.10,60.044785604139754,
2,0.35,testing,1000,1,,,,,,,,,0,0,0,0,9,2,38,2,,,,,376.00939549800023,None,j,0.7463096499996027,376.1095453750004,None,375.50938907100135,375.92601809900043,376.8761456200009,377.37648231300045,376.8761456200009,None,0,0,26,,,4,001,exponential,rgby,0.35-0.75,2021_May_17_1622,color_judgement_and_subjective_perception,2020.2.10,60.044785604139754,
3,0.35,testing,1000,1,,,,,,,,,0,0,0,0,9,3,39,3,,,,,377.9766043190011,None,k,0.5233448170001793,378.0765153910015,None,377.4764994640009,377.893208634001,378.6263574479999,379.1266729250001,378.6263574479999,None,53,53,0,,,4,001,exponential,rgby,0.35-0.75,2021_May_17_1622,color_judgement_and_subjective_perception,2020.2.10,60.044785604139754,
2,0.35,testing,1000,1,,,,,,,,,0,0,0,0,10,0,40,2,,,,,379.72674464100055,None,f,0.7489289410004858,379.82693304700115,None,379.2266651050013,379.64350624600047,380.594273056,381.09440060199995,380.594273056,None,0,0,23,,,4,001,exponential,rgby,0.35-0.75,2021_May_17_1622,color_judgement_and_subjective_perception,2020.2.10,60.044785604139754,
1,0.35,testing,1000,1,,,,,,,,,0,0,0,0,10,1,41,1,,,,,381.6945100940011,None,None,-1,381.794615959001,None,381.1943964530001,381.6111778020004,382.7113839960002,383.2114460820012,382.7113839960002,None,0,28,0,,,4,001,exponential,rgby,0.35-0.75,2021_May_17_1622,color_judgement_and_subjective_perception,2020.2.10,60.044785604139754,
0,0.35,testing,1000,1,,,,,,,,,0,0,0,0,10,2,42,0,,,,,383.81148969700007,None,d,0.4003797690002102,383.91139203200146,None,383.3113903680005,383.72830873600105,384.3448348990005,384.8451680450016,384.3448348990005,None,41,14,0,,,4,001,exponential,rgby,0.35-0.75,2021_May_17_1622,color_judgement_and_subjective_perception,2020.2.10,60.044785604139754,
3,0.35,testing,1000,1,,,,,,,,,0,0,0,0,10,3,43,3,,,,,385.4294125840006,None,f,0.4944597639987478,385.5293146560016,None,384.9449004370017,385.3458473390001,386.04603245600083,386.5461365930005,386.04603245600083,None,50,50,0,,,4,001,exponential,rgby,0.35-0.75,2021_May_17_1622,color_judgement_and_subjective_perception,2020.2.10,60.044785604139754,
0,0.35,testing,1000,1,,,,,,,,,0,0,0,0,11,0,44,0,,,,,387.14635036800064,None,d,0.6895167239999864,387.2463450200012,None,386.64613830300004,387.06282904100044,387.9628616500013,388.46301737000067,387.9628616500013,None,38,13,0,,,4,001,exponential,rgby,0.35-0.75,2021_May_17_1622,color_judgement_and_subjective_perception,2020.2.10,60.044785604139754,
3,0.35,testing,1000,1,,,,,,,,,0,0,0,0,11,1,45,3,,,,,388.92980165800145,None,None,-1,389.0298015940007,None,388.56299514700004,388.86275290600133,389.9464387290009,390.4309039340005,389.9464387290009,None,49,49,0,,,4,001,exponential,rgby,0.35-0.75,2021_May_17_1622,color_judgement_and_subjective_perception,2020.2.10,60.044785604139754,
1,0.35,testing,1000,1,,,,,,,,,0,0,0,0,11,2,46,1,,,,,391.0307995430012,None,f,0.6049695929996233,391.130864105,None,390.530680631,390.9476288700007,391.7641900160015,392.26470150500063,391.7641900160015,None,0,22,0,,,4,001,exponential,rgby,0.35-0.75,2021_May_17_1622,color_judgement_and_subjective_perception,2020.2.10,60.044785604139754,
2,0.35,testing,1000,1,,,,,,,,,0,0,0,0,11,3,47,2,,,,,392.864701769,None,j,0.5070869629998924,392.9647647490001,None,392.36444816100084,392.78126020900163,393.49781449700095,393.9980157660011,393.49781449700095,None,0,0,15,,,4,001,exponential,rgby,0.35-0.75,2021_May_17_1622,color_judgement_and_subjective_perception,2020.2.10,60.044785604139754,
0,0.35,testing,1000,1,,,,,,,,,0,0,0,0,12,0,48,0,,,,,394.5982106240008,None,f,0.741674074999537,394.6981740650008,None,394.0980739680017,394.51486124500116,395.46559375200013,395.9658611900013,395.46559375200013,None,33,11,0,,,4,001,exponential,rgby,0.35-0.75,2021_May_17_1622,color_judgement_and_subjective_perception,2020.2.10,60.044785604139754,
3,0.35,testing,1000,1,,,,,,,,,0,0,0,0,12,1,49,3,,,,,396.5659810190009,None,f,0.7578716890002397,396.6659835400005,None,396.0657054850017,396.4826471380002,397.44936391900046,397.9496510330009,397.44936391900046,None,46,46,0,,,4,001,exponential,rgby,0.35-0.75,2021_May_17_1622,color_judgement_and_subjective_perception,2020.2.10,60.044785604139754,
1,0.35,testing,1000,1,,,,,,,,,0,0,0,0,12,2,50,1,,,,,398.54956164100076,None,f,0.8142577899998287,398.6496141740008,None,398.0495628640001,398.46619550500145,399.48288600700107,399.98304373200153,399.48288600700107,None,0,17,0,,,4,001,exponential,rgby,0.35-0.75,2021_May_17_1622,color_judgement_and_subjective_perception,2020.2.10,60.044785604139754,
2,0.35,testing,1000,1,,,,,,,,,0,0,0,0,12,3,51,2,,,,,400.5673388160012,None,j,0.5885278629993991,400.66731523199996,None,400.0673282180014,400.48422441100047,401.2839141880013,401.7842334960005,401.2839141880013,None,0,0,10,,,4,001,exponential,rgby,0.35-0.75,2021_May_17_1622,color_judgement_and_subjective_perception,2020.2.10,60.044785604139754,
3,0.35,testing,1000,1,,,,,,,,,0,0,0,0,13,0,52,3,,,,,402.38433421100126,None,f,0.7154134699994756,402.4844546610002,None,401.8841562860016,402.30106791900107,403.2177930280013,403.7178512640003,403.2177930280013,None,44,44,0,,,4,001,exponential,rgby,0.35-0.75,2021_May_17_1622,color_judgement_and_subjective_perception,2020.2.10,60.044785604139754,
2,0.35,testing,1000,1,,,,,,,,,0,0,0,0,13,1,53,2,,,,,404.3180186540012,None,None,-1,404.417986294,None,403.8178524670002,404.2347057620009,405.31866173800154,405.81903416500063,405.31866173800154,None,0,0,7,,,4,001,exponential,rgby,0.35-0.75,2021_May_17_1622,color_judgement_and_subjective_perception,2020.2.10,60.044785604139754,
1,0.35,testing,1000,1,,,,,,,,,0,0,0,0,13,2,54,1,,,,,406.41905296500045,None,d,0.37670448499920894,406.51915657300015,None,405.9188999240014,406.33558970300146,406.91902702800144,407.41937779300133,406.91902702800144,None,0,14,0,,,4,001,exponential,rgby,0.35-0.75,2021_May_17_1622,color_judgement_and_subjective_perception,2020.2.10,60.044785604139754,
0,0.35,testing,1000,1,,,,,,,,,0,0,0,0,13,3,55,0,,,,,408.0195071850012,None,d,0.3844470589992852,408.1193897730009,None,407.5192979880012,407.93603019500006,408.53578494000067,409.03630190400145,408.53578494000067,None,29,10,0,,,4,001,exponential,rgby,0.35-0.75,2021_May_17_1622,color_judgement_and_subjective_perception,2020.2.10,60.044785604139754,
1,0.35,testing,1000,1,,,,,,,,,0,0,0,0,14,0,56,1,,,,,409.63637866000136,None,f,0.783476469998277,409.7363689550002,None,409.1360422230009,409.55297275500016,410.5371750970007,411.0372671570003,410.5371750970007,None,0,13,0,,,4,001,exponential,rgby,0.35-0.75,2021_May_17_1622,color_judgement_and_subjective_perception,2020.2.10,60.044785604139754,
3,0.35,testing,1000,1,,,,,,,,,0,0,0,0,14,1,57,3,,,,,411.63748747200043,None,None,-1,411.73726147600064,None,411.1371530970009,411.5540796230016,412.6540763910016,413.154413061,412.6540763910016,None,44,44,0,,,4,001,exponential,rgby,0.35-0.75,2021_May_17_1622,color_judgement_and_subjective_perception,2020.2.10,60.044785604139754,
0,0.35,testing,1000,1,,,,,,,,,0,0,0,0,14,2,58,0,,,,,413.7545154210002,None,f,0.5933499210004811,413.8544945020003,None,413.2541862850012,413.67092845300067,414.4710238000007,414.9712877860002,414.4710238000007,None,25,8,0,,,4,001,exponential,rgby,0.35-0.75,2021_May_17_1622,color_judgement_and_subjective_perception,2020.2.10,60.044785604139754,
2,0.35,testing,1000,1,,,,,,,,,0,0,0,0,14,3,59,2,,,,,415.5553994720012,None,d,0.544287823000559,415.65547941000113,None,415.0553978150001,415.472193824,416.2220857200009,416.72238780500084,416.2220857200009,None,0,0,6,,,4,001,exponential,rgby,0.35-0.75,2021_May_17_1622,color_judgement_and_subjective_perception,2020.2.10,60.044785604139754,
2,0.35,testing,1000,1,,,,,,,,,0,0,0,0,15,0,60,2,,,,,417.32219279400124,None,j,0.38565636000021186,417.42217521600105,None,416.8222905980001,417.2391813680006,417.8390453580014,418.3391319320017,417.8390453580014,None,0,0,6,,,4,001,exponential,rgby,0.35-0.75,2021_May_17_1622,color_judgement_and_subjective_perception,2020.2.10,60.044785604139754,
1,0.35,testing,1000,1,,,,,,,,,0,0,0,0,15,1,61,1,,,,,418.93927730700125,None,k,0.48058132199912507,419.0392703530015,None,418.43925342200055,418.85592518500016,419.53931324600126,420.02384718900066,419.53931324600126,None,0,11,0,,,4,001,exponential,rgby,0.35-0.75,2021_May_17_1622,color_judgement_and_subjective_perception,2020.2.10,60.044785604139754,
0,0.35,testing,1000,1,,,,,,,,,0,0,0,0,15,2,62,0,,,,,420.6237126920005,None,j,0.7321330200011289,420.72366809900086,None,420.1235428500004,420.54041616200084,421.4738917070008,421.9740972870004,421.4738917070008,None,26,9,0,,,4,001,exponential,rgby,0.35-0.75,2021_May_17_1622,color_judgement_and_subjective_perception,2020.2.10,60.044785604139754,
3,0.35,testing,1000,1,,,,,,,,,0,0,0,0,15,3,63,3,,,,,422.5741501540015,None,k,0.8456836140012456,422.6741878030007,None,422.07394502900024,422.4908889490016,423.5407712140004,424.04098961400086,423.5407712140004,None,47,47,0,,,4,001,exponential,rgby,0.35-0.75,2021_May_17_1622,color_judgement_and_subjective_perception,2020.2.10,60.044785604139754,
3,0.35,testing,1000,1,,,,,,,,,0,0,0,0,16,0,64,3,,,,,424.6411294490008,None,k,0.6746779779987264,424.7411712180001,None,424.1408393970014,424.55768206800167,425.44189233,425.9421378290008,425.44189233,None,47,47,0,,,4,001,exponential,rgby,0.35-0.75,2021_May_17_1622,color_judgement_and_subjective_perception,2020.2.10,60.044785604139754,
0,0.35,testing,1000,1,,,,,,,,,0,0,0,0,16,1,65,0,,,,,426.54215733599995,None,f,0.7335365199996886,426.64221899600125,None,426.04189262300133,426.4588203100011,427.4088314620003,427.9092533430012,427.4088314620003,None,26,9,0,,,4,001,exponential,rgby,0.35-0.75,2021_May_17_1622,color_judgement_and_subjective_perception,2020.2.10,60.044785604139754,
1,0.35,testing,1000,1,,,,,,,,,0,0,0,0,16,2,66,1,,,,,428.50924649400076,None,None,-1,428.6091243110004,None,428.0090399190012,428.4257926450009,429.5258115810011,430.0173151880008,429.5258115810011,None,0,9,0,,,4,001,exponential,rgby,0.35-0.75,2021_May_17_1622,color_judgement_and_subjective_perception,2020.2.10,60.044785604139754,
2,0.35,testing,1000,1,,,,,,,,,0,0,0,0,16,3,67,2,,,,,430.61021878000065,None,d,0.39352551299998595,430.7103567080012,None,430.11013748200094,430.52685917500094,431.12678669900015,431.62704909600143,431.12678669900015,None,0,0,4,,,4,001,exponential,rgby,0.35-0.75,2021_May_17_1622,color_judgement_and_subjective_perception,2020.2.10,60.044785604139754,
2,0.35,testing,1000,1,,,,,,,,,0,0,0,0,17,0,68,2,,,,,432.227285975001,None,j,0.40856437900038145,432.32723949400133,None,431.72693552300007,432.1438925950006,432.7603821540015,433.26047406900034,432.7603821540015,None,0,0,4,,,4,001,exponential,rgby,0.35-0.75,2021_May_17_1622,color_judgement_and_subjective_perception,2020.2.10,60.044785604139754,
3,0.35,testing,1000,1,,,,,,,,,0,0,0,0,17,1,69,3,,,,,433.86084218200085,None,f,0.6310370310002327,433.9608229500009,None,433.3605429970012,433.77743908400043,434.6107766820005,435.0951238480011,434.6107766820005,None,45,45,0,,,4,001,exponential,rgby,0.35-0.75,2021_May_17_1622,color_judgement_and_subjective_perception,2020.2.10,60.044785604139754,
0,0.35,testing,1000,1,,,,,,,,,0,0,0,0,17,2,70,0,,,,,435.69523831900005,None,j,0.49257691700040596,435.79526437500135,None,435.1951843720017,435.6118379640011,436.3117469560002,436.8120664880007,436.3117469560002,None,28,9,0,,,4,001,exponential,rgby,0.35-0.75,2021_May_17_1622,color_judgement_and_subjective_perception,2020.2.10,60.044785604139754,
1,0.35,testing,1000,1,,,,,,,,,0,0,0,0,17,3,71,1,,,,,437.412183927001,None,d,0.5116835759999958,437.51216962800027,None,436.9119315349999,437.32880759399995,438.04550123400077,438.5455876820015,438.04550123400077,None,0,13,0,,,4,001,exponential,rgby,0.35-0.75,2021_May_17_1622,color_judgement_and_subjective_perception,2020.2.10,60.044785604139754,
3,0.35,testing,1000,1,,,,,,,,,0,0,0,0,18,0,72,3,,,,,439.145713246,None,None,-1,439.2457203869999,None,438.64555933700103,439.06235836400083,440.14663018400097,440.6466568300002,440.14663018400097,None,47,47,0,,,4,001,exponential,rgby,0.35-0.75,2021_May_17_1622,color_judgement_and_subjective_perception,2020.2.10,60.044785604139754,
1,0.35,testing,1000,1,,,,,,,,,0,0,0,0,18,1,73,1,,,,,441.2469496290014,None,f,0.6689167779986747,441.34693623400017,None,440.74678800200127,441.163411083,442.0468505150002,442.5471682010011,442.0468505150002,None,0,16,0,,,4,001,exponential,rgby,0.35-0.75,2021_May_17_1622,color_judgement_and_subjective_perception,2020.2.10,60.044785604139754,
0,0.35,testing,1000,1,,,,,,,,,0,0,0,0,18,2,74,0,,,,,443.1472060420001,None,j,0.5103874069991434,443.2494827390001,None,442.6470922610006,443.06372098300017,443.7803540620007,444.2807400649999,443.7803540620007,None,31,10,0,,,4,001,exponential,rgby,0.35-0.75,2021_May_17_1622,color_judgement_and_subjective_perception,2020.2.10,60.044785604139754,
2,0.35,testing,1000,1,,,,,,,,,0,0,0,0,18,3,75,2,,,,,444.8807924590001,None,f,0.33897467300084827,444.9808217059999,None,444.3806387980003,444.79734956300126,445.3482439240015,445.84833729599995,445.3482439240015,None,0,0,6,,,4,001,exponential,rgby,0.35-0.75,2021_May_17_1622,color_judgement_and_subjective_perception,2020.2.10,60.044785604139754,
3,0.35,testing,1000,1,,,,,,,,,0,0,0,0,19,0,76,3,,,,,446.44839426,None,f,0.4673383860008471,446.54843259300105,None,445.9482778590009,446.36514129600073,447.04848508800023,447.5487341140015,447.04848508800023,None,50,50,0,,,4,001,exponential,rgby,0.35-0.75,2021_May_17_1622,color_judgement_and_subjective_perception,2020.2.10,60.044785604139754,
0,0.35,testing,1000,1,,,,,,,,,0,0,0,0,19,1,77,0,,,,,448.1486883840007,None,d,0.8152005339998141,448.2487107980014,None,447.64868026500153,448.06536736400085,449.0821055940014,449.58231038800113,449.0821055940014,None,35,12,0,,,4,001,exponential,rgby,0.35-0.75,2021_May_17_1622,color_judgement_and_subjective_perception,2020.2.10,60.044785604139754,
1,0.35,testing,1000,1,,,,,,,,,0,0,0,0,19,2,78,1,,,,,450.16663499100105,None,None,-1,450.26646949800124,None,449.6823302040011,450.0833262390006,451.183155353001,451.68348565700035,451.183155353001,None,0,16,0,,,4,001,exponential,rgby,0.35-0.75,2021_May_17_1622,color_judgement_and_subjective_perception,2020.2.10,60.044785604139754,
2,0.35,testing,1000,1,,,,,,,,,0,0,0,0,19,3,79,2,,,,,452.28358307000053,None,j,0.448352266999791,452.3835577630016,None,451.7833586550005,452.20020854700124,452.8502721290006,453.35033907700017,452.8502721290006,None,0,0,7,,,4,001,exponential,rgby,0.35-0.75,2021_May_17_1622,color_judgement_and_subjective_perception,2020.2.10,60.044785604139754,
2,0.35,testing,1000,1,,,,,,,,,0,0,0,0,20,0,80,2,,,,,453.95040880300076,None,j,0.6134567409990268,454.05039624000165,None,453.45024801,453.86709387800147,454.68368508599997,455.1680434730006,454.68368508599997,None,0,0,5,,,4,001,exponential,rgby,0.35-0.75,2021_May_17_1622,color_judgement_and_subjective_perception,2020.2.10,60.044785604139754,
0,0.35,testing,1000,1,,,,,,,,,0,0,0,0,20,1,81,0,,,,,455.76804741400156,None,j,0.45172726000055263,455.86813539300056,None,455.268105829,455.68480220400124,456.3513979470008,456.85163162200115,456.3513979470008,None,32,11,0,,,4,001,exponential,rgby,0.35-0.75,2021_May_17_1622,color_judgement_and_subjective_perception,2020.2.10,60.044785604139754,
1,0.35,testing,1000,1,,,,,,,,,0,0,0,0,20,2,82,1,,,,,457.4519594370013,None,f,0.6079883840011462,457.551842244,None,456.95168569199996,457.36846711399994,458.1850608870009,458.6852616310007,458.1850608870009,None,0,15,0,,,4,001,exponential,rgby,0.35-0.75,2021_May_17_1622,color_judgement_and_subjective_perception,2020.2.10,60.044785604139754,
3,0.35,testing,1000,1,,,,,,,,,0,0,0,0,20,3,83,3,,,,,459.2854921240014,None,k,0.47044986500077357,459.3853855570014,None,458.7852372770012,459.2020044400015,459.885393519,460.3698245330015,459.885393519,None,48,48,0,,,4,001,exponential,rgby,0.35-0.75,2021_May_17_1622,color_judgement_and_subjective_perception,2020.2.10,60.044785604139754,
3,0.35,testing,1000,1,,,,,,,,,0,0,0,0,21,0,84,3,,,,,460.9699097470002,None,f,0.546082603999821,461.0697877800012,None,460.4696893,460.88641616600034,461.6363236690013,462.1367432900006,461.6363236690013,None,46,46,0,,,4,001,exponential,rgby,0.35-0.75,2021_May_17_1622,color_judgement_and_subjective_perception,2020.2.10,60.044785604139754,
2,0.35,testing,1000,1,,,,,,,,,0,0,0,0,21,1,85,2,,,,,462.7369302370007,None,j,0.4267961799996556,462.83703649400013,None,462.23655061499994,462.6535403020007,463.2867615920004,463.78693833000034,463.2867615920004,None,0,0,0,,,4,001,exponential,rgby,0.35-0.75,2021_May_17_1622,color_judgement_and_subjective_perception,2020.2.10,60.044785604139754,
0,0.35,testing,1000,1,,,,,,,,,0,0,0,0,21,2,86,0,,,,,464.38704113600033,None,j,0.40892631799943047,464.4869046980002,None,463.88684964999993,464.303593093,464.9202850360016,465.4047046600008,464.9202850360016,None,28,9,0,,,4,001,exponential,rgby,0.35-0.75,2021_May_17_1622,color_judgement_and_subjective_perception,2020.2.10,60.044785604139754,
1,0.35,testing,1000,1,,,,,,,,,0,0,0,0,21,3,87,1,,,,,466.00463172700074,None,j,0.37505421499918157,466.1047894400017,None,465.5047282120013,465.921406423,466.5047625390016,467.0049671530014,466.5047625390016,None,0,9,0,,,4,001,exponential,rgby,0.35-0.75,2021_May_17_1622,color_judgement_and_subjective_perception,2020.2.10,60.044785604139754,
2,0.35,testing,1000,1,,,,,,,,,0,0,0,0,22,0,88,2,,,,,467.605109170001,None,d,0.6546080329990218,467.7051747200003,None,467.1048577240017,467.52178855000057,468.3883173150007,468.8885859300008,468.3883173150007,None,0,0,1,,,4,001,exponential,rgby,0.35-0.75,2021_May_17_1622,color_judgement_and_subjective_perception,2020.2.10,60.044785604139754,
3,0.35,testing,1000,1,,,,,,,,,0,0,0,0,22,1,89,3,,,,,469.4886606680011,None,k,0.43515813300109585,469.58870346300137,None,468.9883743490009,469.4052897310012,470.0446527720014,470.5396275890016,470.0446527720014,None,46,46,0,,,4,001,exponential,rgby,0.35-0.75,2021_May_17_1622,color_judgement_and_subjective_perception,2020.2.10,60.044785604139754,
0,0.35,testing,1000,1,,,,,,,,,0,0,0,0,22,2,90,0,,,,,471.1396312780016,None,d,0.8323081320013443,471.23957111100026,None,470.639519706001,471.05621212500046,472.08980680900095,472.5899823110012,472.08980680900095,None,29,10,0,,,4,001,exponential,rgby,0.35-0.75,2021_May_17_1622,color_judgement_and_subjective_perception,2020.2.10,60.044785604139754,
1,0.35,testing,1000,1,,,,,,,,,0,0,0,0,22,3,91,1,,,,,473.19008180400124,None,None,-1,473.28998129499996,None,472.6900195270009,473.10674248800024,474.2068018280006,474.70688171300026,474.2068018280006,None,0,8,0,,,4,001,exponential,rgby,0.35-0.75,2021_May_17_1622,color_judgement_and_subjective_perception,2020.2.10,60.044785604139754,
3,0.35,testing,1000,1,,,,,,,,,0,0,0,0,23,0,92,3,,,,,475.29126037900096,None,f,0.4727219910000713,475.39113546000044,None,474.80674155400084,475.20780088800166,475.890931508,476.39126382200084,475.890931508,None,42,42,0,,,4,001,exponential,rgby,0.35-0.75,2021_May_17_1622,color_judgement_and_subjective_perception,2020.2.10,60.044785604139754,
1,0.35,testing,1000,1,,,,,,,,,0,0,0,0,23,1,93,1,,,,,476.99131284100076,None,d,0.7002803180002957,477.0915107230012,None,476.49129843100127,476.9080184580016,477.8248207120014,478.3249725450005,477.8248207120014,None,0,9,0,,,4,001,exponential,rgby,0.35-0.75,2021_May_17_1622,color_judgement_and_subjective_perception,2020.2.10,60.044785604139754,
2,0.35,testing,1000,1,,,,,,,,,0,0,0,0,23,2,94,2,,,,,478.92506256100023,None,None,-1,479.0250112540016,None,478.42488910200154,478.8417170880002,479.94185952500084,480.42611895200025,479.94185952500084,None,0,0,2,,,4,001,exponential,rgby,0.35-0.75,2021_May_17_1622,color_judgement_and_subjective_perception,2020.2.10,60.044785604139754,
0,0.35,testing,1000,1,,,,,,,,,0,0,0,0,23,3,95,0,,,,,481.0262074070015,None,k,0.2895455629986827,481.12629144400125,None,480.52613144800125,480.9426733119999,481.44272655700115,481.94302073400104,481.44272655700115,None,29,10,0,,,4,001,exponential,rgby,0.35-0.75,2021_May_17_1622,color_judgement_and_subjective_perception,2020.2.10,60.044785604139754,
1,0.35,testing,1000,1,,,,,,,,,0,0,0,0,,,,,0,0,0,1,488.5614026380008,None,None,-1,488.66157819399996,None,488.064983839,488.478149777,489.57995036300053,490.06263698300063,489.57995036300053,None,0,13,0,482.0552685420007,None,4,001,exponential,rgby,0.35-0.75,2021_May_17_1622,color_judgement_and_subjective_perception,2020.2.10,60.044785604139754,
2,0.35,testing,1000,1,,,,,,,,,0,0,0,0,,,,,0,1,1,2,490.6626773600001,None,d,0.5331361890002881,490.762690163001,None,490.1623886840007,490.57929167100156,491.3145787420017,491.812745919,491.3145787420017,None,0,0,4,None,None,4,001,exponential,rgby,0.35-0.75,2021_May_17_1622,color_judgement_and_subjective_perception,2020.2.10,60.044785604139754,
1,0.35,testing,1000,1,,,,,,,,,0,0,0,0,,,,,0,2,2,1,492.41297324600055,None,f,0.49492291299975477,492.512950792001,None,491.91266511200047,492.3294254830016,493.0309190780008,493.5297371180004,493.0309190780008,None,0,16,0,None,None,4,001,exponential,rgby,0.35-0.75,2021_May_17_1622,color_judgement_and_subjective_perception,2020.2.10,60.044785604139754,
2,0.35,testing,1000,1,,,,,,,,,0,0,0,0,,,,,0,3,3,2,494.1299111670014,None,f,0.4181300510008441,494.229744698001,None,493.6295937270006,494.0465270700006,494.6808893530015,495.1641055320015,494.6808893530015,None,0,0,5,None,None,4,001,exponential,rgby,0.35-0.75,2021_May_17_1622,color_judgement_and_subjective_perception,2020.2.10,60.044785604139754,
2,0.35,testing,1000,1,,,,,,,,,0,0,0,0,,,,,1,0,4,2,495.7641627230005,None,j,0.5357774799995241,495.8640934850009,None,495.263819400001,495.6807965950011,496.43204462700123,496.93099703400003,496.43204462700123,None,0,0,7,None,None,4,001,exponential,rgby,0.35-0.75,2021_May_17_1622,color_judgement_and_subjective_perception,2020.2.10,60.044785604139754,
2,0.35,testing,1000,1,,,,,,,,,0,0,0,0,,,,,1,1,5,2,497.5311361560016,None,j,0.49663099300050817,497.6312249530001,None,497.0310452630001,497.4477663380003,498.14777703600157,498.64786315200035,498.14777703600157,None,0,0,5,None,None,4,001,exponential,rgby,0.35-0.75,2021_May_17_1622,color_judgement_and_subjective_perception,2020.2.10,60.044785604139754,
2,0.35,testing,1000,1,,,,,,,,,0,0,0,0,,,,,1,2,6,2,499.24794134200056,None,f,0.6997989780011267,499.3480853270012,None,498.74776193600155,499.1647410280002,500.0672959930016,500.5659378529999,500.0672959930016,None,0,0,3,None,None,4,001,exponential,rgby,0.35-0.75,2021_May_17_1622,color_judgement_and_subjective_perception,2020.2.10,60.044785604139754,
0,0.35,testing,1000,1,,,,,,,,,0,0,0,0,,,,,1,3,7,0,501.1658511130008,None,d,0.4059153089983738,501.2659376470001,None,500.66552438100007,501.0824495470006,501.7005008110009,502.1993910550009,501.7005008110009,None,30,10,0,None,None,4,001,exponential,rgby,0.35-0.75,2021_May_17_1622,color_judgement_and_subjective_perception,2020.2.10,60.044785604139754,
1,0.35,testing,1000,1,,,,,,,,,0,0,0,0,,,,,2,0,8,1,502.7995393350011,None,d,0.4684535020005569,502.89940670500073,None,502.29919154000163,502.71616905500014,503.4010781830002,503.89950092800063,503.4010781830002,None,0,11,0,None,None,4,001,exponential,rgby,0.35-0.75,2021_May_17_1622,color_judgement_and_subjective_perception,2020.2.10,60.044785604139754,
2,0.35,testing,1000,1,,,,,,,,,0,0,0,0,,,,,2,1,9,2,504.4997360640009,None,d,0.7519894590004697,504.599847114001,None,503.99933045800026,504.41603461400155,505.3837567590017,505.8840512070001,505.3837567590017,None,0,0,0,None,None,4,001,exponential,rgby,0.35-0.75,2021_May_17_1622,color_judgement_and_subjective_perception,2020.2.10,60.044785604139754,
0,0.35,testing,1000,1,,,,,,,,,0,0,0,0,,,,,2,2,10,0,506.4840907510006,None,j,0.335814689999097,506.5840494940003,None,505.9837904690012,506.40074666500004,506.950721788,507.45131045700145,506.950721788,None,28,9,0,None,None,4,001,exponential,rgby,0.35-0.75,2021_May_17_1622,color_judgement_and_subjective_perception,2020.2.10,60.044785604139754,
3,0.35,testing,1000,1,,,,,,,,,0,0,0,0,,,,,2,3,11,3,508.0510045560004,None,f,0.7688325099989015,508.1509995060005,None,507.55074534900086,507.9677500200014,508.9509938910014,509.45128982500137,508.9509938910014,None,44,44,0,None,None,4,001,exponential,rgby,0.35-0.75,2021_May_17_1622,color_judgement_and_subjective_perception,2020.2.10,60.044785604139754,
2,0.35,testing,1000,1,,,,,,,,,0,0,0,0,,,,,3,0,12,2,510.0426667540014,None,j,0.7442771650003124,510.1354851740016,None,509.55096158000015,509.9679211890016,510.90369601600105,511.4024185320013,510.90369601600105,None,0,0,4,None,None,4,001,exponential,rgby,0.35-0.75,2021_May_17_1622,color_judgement_and_subjective_perception,2020.2.10,60.044785604139754,
0,0.35,testing,1000,1,,,,,,,,,0,0,0,0,,,,,3,1,13,0,512.0023154620012,None,j,0.5373154629996861,512.1024017620002,None,511.5022993300008,511.9189078030013,512.6710218510016,513.16923236,512.6710218510016,None,28,9,0,None,None,4,001,exponential,rgby,0.35-0.75,2021_May_17_1622,color_judgement_and_subjective_perception,2020.2.10,60.044785604139754,
1,0.35,testing,1000,1,,,,,,,,,0,0,0,0,,,,,3,2,14,1,513.7694160790015,None,f,0.4663496920002217,513.8694790040008,None,513.2692766500004,513.6860479290008,514.3546639250017,514.8528117340011,514.3546639250017,None,0,14,0,None,None,4,001,exponential,rgby,0.35-0.75,2021_May_17_1622,color_judgement_and_subjective_perception,2020.2.10,60.044785604139754,
2,0.35,testing,1000,1,,,,,,,,,0,0,0,0,,,,,3,3,15,2,515.437088386001,None,f,0.4787231239988614,515.5371443040003,None,514.9528233260007,515.3539276840002,516.0385655990012,516.5371608559999,516.0385655990012,None,0,0,2,None,None,4,001,exponential,rgby,0.35-0.75,2021_May_17_1622,color_judgement_and_subjective_perception,2020.2.10,60.044785604139754,
1,0.35,testing,1000,1,,,,,,,,,0,0,0,0,,,,,4,0,16,1,517.1374162760003,None,k,0.4424118280003313,517.2374377600008,None,516.6371170520015,517.0540576890016,517.7041528600002,518.2042817270012,517.7041528600002,None,0,13,0,None,None,4,001,exponential,rgby,0.35-0.75,2021_May_17_1622,color_judgement_and_subjective_perception,2020.2.10,60.044785604139754,
1,0.35,testing,1000,1,,,,,,,,,0,0,0,0,,,,,4,1,17,1,518.804283853,None,k,0.5596780089999811,518.9041922350007,None,518.3040136480013,518.7209193660001,519.4877048650014,519.9877624110013,519.4877048650014,None,0,15,0,None,None,4,001,exponential,rgby,0.35-0.75,2021_May_17_1622,color_judgement_and_subjective_perception,2020.2.10,60.044785604139754,
1,0.35,testing,1000,1,,,,,,,,,0,0,0,0,,,,,4,2,18,1,520.5722042120015,None,k,0.4878381430007721,520.6721035280007,None,520.071868088,520.4889523300008,521.1886468550001,521.6889606060013,521.1886468550001,None,0,17,0,None,None,4,001,exponential,rgby,0.35-0.75,2021_May_17_1622,color_judgement_and_subjective_perception,2020.2.10,60.044785604139754,
3,0.35,testing,1000,1,,,,,,,,,0,0,0,0,,,,,4,3,19,3,522.289046707001,None,k,0.5146561399997154,522.3892031580017,None,521.7887955800015,522.205744199,522.9239410800001,523.4225206990013,522.9239410800001,None,49,49,0,None,None,4,001,exponential,rgby,0.35-0.75,2021_May_17_1622,color_judgement_and_subjective_perception,2020.2.10,60.044785604139754,
1,0.35,testing,1000,1,,,,,,,,,0,0,0,0,,,,,5,0,20,1,524.0226343330014,None,j,0.7492151290007314,524.1226165710013,None,523.5224344350008,523.9392404220016,524.8911335880002,525.3738452310008,524.8911335880002,None,0,18,0,None,None,4,001,exponential,rgby,0.35-0.75,2021_May_17_1622,color_judgement_and_subjective_perception,2020.2.10,60.044785604139754,
1,0.35,testing,1000,1,,,,,,,,,0,0,0,0,,,,,5,1,21,1,525.9736288580007,None,f,0.6301900260004913,526.0736492960004,None,525.4733357360001,525.8904441690011,526.7251857390002,527.2239657670016,526.7251857390002,None,0,20,0,None,None,4,001,exponential,rgby,0.35-0.75,2021_May_17_1622,color_judgement_and_subjective_perception,2020.2.10,60.044785604139754,
0,0.35,testing,1000,1,,,,,,,,,0,0,0,0,,,,,5,2,22,0,527.8240727850007,None,None,-1,527.9240967700007,None,527.3238032990012,527.740686825,528.840996211,529.340906925001,528.840996211,None,32,11,0,None,None,4,001,exponential,rgby,0.35-0.75,2021_May_17_1622,color_judgement_and_subjective_perception,2020.2.10,60.044785604139754,
3,0.35,testing,1000,1,,,,,,,,,0,0,0,0,,,,,5,3,23,3,529.9409650190009,None,k,0.3842059270009486,530.039675082,None,529.4408236280015,529.8576673880016,530.4434901640016,530.9418483460013,530.4434901640016,None,48,48,0,None,None,4,001,exponential,rgby,0.35-0.75,2021_May_17_1622,color_judgement_and_subjective_perception,2020.2.10,60.044785604139754,
2,0.35,testing,1000,1,,,,,,,,,0,0,0,0,,,,,6,0,24,2,531.542160387,None,k,0.5257769499985443,531.6420946540002,None,531.0417461960005,531.4586954000006,532.1938879090012,532.6924350320005,532.1938879090012,None,0,0,4,None,None,4,001,exponential,rgby,0.35-0.75,2021_May_17_1622,color_judgement_and_subjective_perception,2020.2.10,60.044785604139754,
3,0.35,testing,1000,1,,,,,,,,,0,0,0,0,,,,,6,1,25,3,533.292394858001,None,k,0.5673323530008929,533.3924418540009,None,532.7921773530015,533.2089110150009,533.9939685340014,534.4925811270004,533.9939685340014,None,45,45,0,None,None,4,001,exponential,rgby,0.35-0.75,2021_May_17_1622,color_judgement_and_subjective_perception,2020.2.10,60.044785604139754,
3,0.35,testing,1000,1,,,,,,,,,0,0,0,0,,,,,6,2,26,3,535.0767986110004,None,k,0.5107962380006938,535.1769407160009,None,534.5924531360015,535.0091002839999,535.7100063270009,536.2102118290004,535.7100063270009,None,43,43,0,None,None,4,001,exponential,rgby,0.35-0.75,2021_May_17_1622,color_judgement_and_subjective_perception,2020.2.10,60.044785604139754,
3,0.35,testing,1000,1,,,,,,,,,0,0,0,0,,,,,6,3,27,3,536.8104823930007,None,k,0.6253986459996668,536.9104474710002,None,536.3101686580012,536.7270885610014,537.5603897830006,538.0606701680008,537.5603897830006,None,41,41,0,None,None,4,001,exponential,rgby,0.35-0.75,2021_May_17_1622,color_judgement_and_subjective_perception,2020.2.10,60.044785604139754,
2,0.35,testing,1000,1,,,,,,,,,0,0,0,0,,,,,7,0,28,2,538.6606069490008,None,j,0.47921601199959696,538.7606317010013,None,538.1605095160012,538.5771681060014,539.2604803160011,539.7608620490009,539.2604803160011,None,0,0,1,None,None,4,001,exponential,rgby,0.35-0.75,2021_May_17_1622,color_judgement_and_subjective_perception,2020.2.10,60.044785604139754,
0,0.35,testing,1000,1,,,,,,,,,0,0,0,0,,,,,7,1,29,0,540.3451103080006,None,f,0.7386525170004461,540.4452110370003,None,539.860768640001,540.2618780150005,541.21322358,541.7119609690017,541.21322358,None,28,9,0,None,None,4,001,exponential,rgby,0.35-0.75,2021_May_17_1622,color_judgement_and_subjective_perception,2020.2.10,60.044785604139754,
1,0.35,testing,1000,1,,,,,,,,,0,0,0,0,,,,,7,2,30,1,542.3120461790004,None,d,0.38770671900056186,542.4121576810012,None,541.8117982210006,542.2287284640006,542.8287849010012,543.3288652790015,542.8287849010012,None,0,12,0,None,None,4,001,exponential,rgby,0.35-0.75,2021_May_17_1622,color_judgement_and_subjective_perception,2020.2.10,60.044785604139754,
3,0.35,testing,1000,1,,,,,,,,,0,0,0,0,,,,,7,3,31,3,543.9290406840009,None,k,0.45888097200077027,544.0289648130001,None,543.4287509220012,543.8455319680015,544.5137148870017,545.0123695230013,544.5137148870017,None,36,36,0,None,None,4,001,exponential,rgby,0.35-0.75,2021_May_17_1622,color_judgement_and_subjective_perception,2020.2.10,60.044785604139754,
2,0.35,testing,1000,1,,,,,,,,,0,0,0,0,,,,,8,0,32,2,545.5968918970011,None,j,0.7749596489993564,545.6968781280011,None,545.0966184050012,545.5134072190012,546.4966532900016,546.9969545080003,546.4966532900016,None,0,0,0,None,None,4,001,exponential,rgby,0.35-0.75,2021_May_17_1622,color_judgement_and_subjective_perception,2020.2.10,60.044785604139754,
0,0.35,testing,1000,1,,,,,,,,,0,0,0,0,,,,,8,1,33,0,547.5972016220003,None,None,-1,547.6970922200017,None,547.0967185860009,547.5135942960005,548.6160654860014,549.0971431120015,548.6160654860014,None,25,8,0,None,None,4,001,exponential,rgby,0.35-0.75,2021_May_17_1622,color_judgement_and_subjective_perception,2020.2.10,60.044785604139754,
0,0.35,testing,1000,1,,,,,,,,,0,0,0,0,,,,,8,2,34,0,549.6973720200003,None,f,0.3782940970013442,549.7974520070002,None,549.1969617990017,549.6138272910011,550.199464411,550.6985104410014,550.199464411,None,25,8,0,None,None,4,001,exponential,rgby,0.35-0.75,2021_May_17_1622,color_judgement_and_subjective_perception,2020.2.10,60.044785604139754,
0,0.35,testing,1000,1,,,,,,,,,0,0,0,0,,,,,8,3,35,0,551.298422586,None,None,-1,551.3984575980012,None,550.7981433990008,551.2148801359999,552.3154950540011,552.8154183630013,552.3154950540011,None,25,8,0,None,None,4,001,exponential,rgby,0.35-0.75,2021_May_17_1622,color_judgement_and_subjective_perception,2020.2.10,60.044785604139754,
1,0.35,testing,1000,1,,,,,,,,,0,0,0,0,,,,,9,0,36,1,553.4153386200014,None,f,0.2605598150003061,553.5152925770017,None,552.9152038880002,553.3320424320009,553.8003388940015,554.298911105001,553.8003388940015,None,0,9,0,None,None,4,001,exponential,rgby,0.35-0.75,2021_May_17_1622,color_judgement_and_subjective_perception,2020.2.10,60.044785604139754,
0,0.35,testing,1000,1,,,,,,,,,0,0,0,0,,,,,9,1,37,0,554.8986209740015,None,j,0.5611221729996032,554.998627500001,None,554.3986859140005,554.815557883001,555.5842419920009,556.0832082290017,555.5842419920009,None,26,9,0,None,None,4,001,exponential,rgby,0.35-0.75,2021_May_17_1622,color_judgement_and_subjective_perception,2020.2.10,60.044785604139754,
2,0.35,testing,1000,1,,,,,,,,,0,0,0,0,,,,,9,2,38,2,556.6833007150017,None,f,0.32856978500058176,556.7832825580008,None,556.1831314670017,556.5998933570008,557.1332128419999,557.633245858,557.1332128419999,None,0,0,1,None,None,4,001,exponential,rgby,0.35-0.75,2021_May_17_1622,color_judgement_and_subjective_perception,2020.2.10,60.044785604139754,
1,0.35,testing,1000,1,,,,,,,,,0,0,0,0,,,,,9,3,39,1,558.2336350020014,None,f,0.2101625650011556,558.3336770290007,None,557.733465882,558.1503567210002,558.5685780200001,559.0670356040009,558.5685780200001,None,0,9,0,None,None,4,001,exponential,rgby,0.35-0.75,2021_May_17_1622,color_judgement_and_subjective_perception,2020.2.10,60.044785604139754,
2,0.35,testing,1000,1,,,,,,,,,0,0,0,0,,,,,10,0,40,2,559.6671281840008,None,d,0.2885222139993857,559.7672863930002,None,559.166842003,559.5839099120003,560.0758560459999,560.5680199460003,560.0758560459999,None,0,0,0,None,None,4,001,exponential,rgby,0.35-0.75,2021_May_17_1622,color_judgement_and_subjective_perception,2020.2.10,60.044785604139754,
2,0.35,testing,1000,1,,,,,,,,,0,0,0,0,,,,,10,1,41,2,561.1681570300007,None,f,0.42757446200084814,561.2682032540015,None,560.6678002010012,561.0848221810011,561.7181212490013,562.2183737539999,561.7181212490013,None,0,0,2,None,None,4,001,exponential,rgby,0.35-0.75,2021_May_17_1622,color_judgement_and_subjective_perception,2020.2.10,60.044785604139754,
3,0.35,testing,1000,1,,,,,,,,,0,0,0,0,,,,,10,2,42,3,562.8183799850012,None,j,0.521391231999587,562.9184719550012,None,562.3182778080009,562.7353285870013,563.4684083550001,563.9685809680013,563.4684083550001,None,34,34,0,None,None,4,001,exponential,rgby,0.35-0.75,2021_May_17_1622,color_judgement_and_subjective_perception,2020.2.10,60.044785604139754,
0,0.35,testing,1000,1,,,,,,,,,0,0,0,0,,,,,10,3,43,0,564.568772386001,None,None,-1,564.668674859,None,564.0684223890003,564.4853076080017,565.5701982549999,566.069645308,565.5701982549999,None,31,10,0,None,None,4,001,exponential,rgby,0.35-0.75,2021_May_17_1622,color_judgement_and_subjective_perception,2020.2.10,60.044785604139754,
1,0.35,testing,1000,1,,,,,,,,,0,0,0,0,,,,,11,0,44,1,566.6696727480012,None,j,0.5259793669993087,566.7698787970003,None,566.1694340290014,566.586415283,567.3214788740006,567.8201970080008,567.3214788740006,None,0,11,0,None,None,4,001,exponential,rgby,0.35-0.75,2021_May_17_1622,color_judgement_and_subjective_perception,2020.2.10,60.044785604139754,
3,0.35,testing,1000,1,,,,,,,,,0,0,0,0,,,,,11,1,45,3,568.4202999610006,None,j,0.23174143100004585,568.5201297900003,None,567.9198258740016,568.3367990420011,568.7700951330007,569.2703930870011,568.7700951330007,None,36,36,0,None,None,4,001,exponential,rgby,0.35-0.75,2021_May_17_1622,color_judgement_and_subjective_perception,2020.2.10,60.044785604139754,
0,0.35,testing,1000,1,,,,,,,,,0,0,0,0,,,,,11,2,46,0,569.8705134600004,None,f,0.6773333889996138,569.9704969110007,None,569.3702212790013,569.7871130650001,570.6711213410017,571.1714237510005,570.6711213410017,None,35,12,0,None,None,4,001,exponential,rgby,0.35-0.75,2021_May_17_1622,color_judgement_and_subjective_perception,2020.2.10,60.044785604139754,
2,0.35,testing,1000,1,,,,,,,,,0,0,0,0,,,,,11,3,47,2,571.7715269780001,None,f,0.6163544559985894,571.8714742780012,None,571.2711424930003,571.6880392010007,572.5050448410002,573.0048410830004,572.5050448410002,None,0,0,9,None,None,4,001,exponential,rgby,0.35-0.75,2021_May_17_1622,color_judgement_and_subjective_perception,2020.2.10,60.044785604139754,
0,0.35,testing,1000,1,,,,,,,,,0,0,0,0,,,,,12,0,48,0,573.6049135760004,None,f,0.526785143001689,573.7050475860015,None,573.1048600100003,573.5218686250009,574.2550622880008,574.7553377520017,574.2550622880008,None,38,13,0,None,None,4,001,exponential,rgby,0.35-0.75,2021_May_17_1622,color_judgement_and_subjective_perception,2020.2.10,60.044785604139754,
2,0.35,testing,1000,1,,,,,,,,,0,0,0,0,,,,,12,1,49,2,575.3394914290002,None,d,0.7122666490013216,575.4395558720007,None,574.8550551650005,575.2560597820011,576.1727309930011,576.6729870770014,576.1727309930011,None,0,0,12,None,None,4,001,exponential,rgby,0.35-0.75,2021_May_17_1622,color_judgement_and_subjective_perception,2020.2.10,60.044785604139754,
2,0.35,testing,1000,1,,,,,,,,,0,0,0,0,,,,,12,2,50,2,577.2731217380006,None,d,0.4106357209984708,577.3731747080001,None,576.7729704630001,577.1899110040013,577.806497769001,578.3067852560016,577.806497769001,None,0,0,14,None,None,4,001,exponential,rgby,0.35-0.75,2021_May_17_1622,color_judgement_and_subjective_perception,2020.2.10,60.044785604139754,
0,0.35,testing,1000,1,,,,,,,,,0,0,0,0,,,,,12,3,51,0,578.9067926740008,None,d,0.42519921399980376,579.0066334250005,None,578.4063737020006,578.8232629700015,579.4579692679999,579.9568380220007,579.4579692679999,None,42,14,0,None,None,4,001,exponential,rgby,0.35-0.75,2021_May_17_1622,color_judgement_and_subjective_perception,2020.2.10,60.044785604139754,
0,0.35,testing,1000,1,,,,,,,,,0,0,0,0,,,,,13,0,52,0,580.5412114070004,None,f,0.5506409839999833,580.641145435,None,580.0553863840014,580.4578743860002,581.2258737970005,581.7245918410008,581.2258737970005,None,44,15,0,None,None,4,001,exponential,rgby,0.35-0.75,2021_May_17_1622,color_judgement_and_subjective_perception,2020.2.10,60.044785604139754,
1,0.35,testing,1000,1,,,,,,,,,0,0,0,0,,,,,13,1,53,1,582.3247935440013,None,None,-1,582.4249623860014,None,581.8244692250009,582.2413840200006,583.3418527720005,583.841505937,583.3418527720005,None,0,19,0,None,None,4,001,exponential,rgby,0.35-0.75,2021_May_17_1622,color_judgement_and_subjective_perception,2020.2.10,60.044785604139754,
2,0.35,testing,1000,1,,,,,,,,,0,0,0,0,,,,,13,2,54,2,584.4417122020004,None,f,0.4102170420010225,584.5416239240003,None,583.9414199940002,584.3583946860017,584.9764233570004,585.4593998020009,584.9764233570004,None,0,0,19,None,None,4,001,exponential,rgby,0.35-0.75,2021_May_17_1622,color_judgement_and_subjective_perception,2020.2.10,60.044785604139754,
1,0.35,testing,1000,1,,,,,,,,,0,0,0,0,,,,,13,3,55,1,586.0593447080009,None,j,0.3925217680007336,586.1593355069999,None,585.5590905890003,585.9759475430001,586.5759990930001,587.0763666290004,586.5759990930001,None,0,22,0,None,None,4,001,exponential,rgby,0.35-0.75,2021_May_17_1622,color_judgement_and_subjective_perception,2020.2.10,60.044785604139754,
3,0.35,testing,1000,1,,,,,,,,,0,0,0,0,,,,,14,0,56,3,587.6763642090009,None,f,0.32735020099971734,587.7764018200014,None,587.1760576910001,587.5931639120008,588.1262588110003,588.6264783370007,588.1262588110003,None,46,46,0,None,None,4,001,exponential,rgby,0.35-0.75,2021_May_17_1622,color_judgement_and_subjective_perception,2020.2.10,60.044785604139754,
1,0.35,testing,1000,1,,,,,,,,,0,0,0,0,,,,,14,1,57,1,589.2266405380014,None,j,0.4573755510009505,589.3264663260015,None,588.726307328001,589.1433931690008,589.8097549930008,590.2943482490009,589.8097549930008,None,0,25,0,None,None,4,001,exponential,rgby,0.35-0.75,2021_May_17_1622,color_judgement_and_subjective_perception,2020.2.10,60.044785604139754,
3,0.35,testing,1000,1,,,,,,,,,0,0,0,0,,,,,14,2,58,3,590.8944718910006,None,k,0.5815325300009135,590.9943227740005,None,590.394164108,590.8109029660009,591.5957620910012,592.0944779270012,591.5957620910012,None,49,49,0,None,None,4,001,exponential,rgby,0.35-0.75,2021_May_17_1622,color_judgement_and_subjective_perception,2020.2.10,60.044785604139754,
2,0.35,testing,1000,1,,,,,,,,,0,0,0,0,,,,,14,3,59,2,592.6946393779999,None,k,0.7491074669997033,592.7947106510001,None,592.1944896040004,592.6114367910013,593.5628951310009,594.0616096350004,593.5628951310009,None,0,0,25,None,None,4,001,exponential,rgby,0.35-0.75,2021_May_17_1622,color_judgement_and_subjective_perception,2020.2.10,60.044785604139754,
3,0.35,testing,1000,1,,,,,,,,,0,0,0,0,,,,,15,0,60,3,594.6616960150004,None,k,0.3901496139988012,594.7616812650012,None,594.1612103810003,594.5783334020016,595.180712540001,595.6791263140003,595.180712540001,None,50,50,0,None,None,4,001,exponential,rgby,0.35-0.75,2021_May_17_1622,color_judgement_and_subjective_perception,2020.2.10,60.044785604139754,
2,0.35,testing,1000,1,,,,,,,,,0,0,0,0,,,,,15,1,61,2,596.279302379,None,None,-1,596.379381525001,None,595.7790122140013,596.1959320590013,597.298456075001,597.7962485150001,597.298456075001,None,0,0,26,None,None,4,001,exponential,rgby,0.35-0.75,2021_May_17_1622,color_judgement_and_subjective_perception,2020.2.10,60.044785604139754,
2,0.35,testing,1000,1,,,,,,,,,0,0,0,0,,,,,15,2,62,2,598.3962715090001,None,f,0.6316465919990151,598.4961956710013,None,597.8959830160002,598.3129415880012,599.148068126,599.6463272870005,599.148068126,None,0,0,28,None,None,4,001,exponential,rgby,0.35-0.75,2021_May_17_1622,color_judgement_and_subjective_perception,2020.2.10,60.044785604139754,
