color_idx_ind,target_acc,mode,response_deadline,block_number,trials_training.thisRepN,trials_training.thisTrialN,trials_training.thisN,trials_training.thisIndex,trials_training_deadline.thisRepN,trials_training_deadline.thisTrialN,trials_training_deadline.thisN,trials_training_deadline.thisIndex,blocks.thisRepN,blocks.thisTrialN,blocks.thisN,blocks.thisIndex,trials_staircase.thisRepN,trials_staircase.thisTrialN,trials_staircase.thisN,trials_staircase.thisIndex,trials.thisRepN,trials.thisTrialN,trials.thisN,trials.thisIndex,stimulus_ind.started,stimulus_ind.stopped,key_resp_ind.keys,key_resp_ind.rt,key_resp_ind.started,key_resp_ind.stopped,fixation_cross_1_ind.started,fixation_cross_1_ind.stopped,text.started,text.stopped,dummy_text.started,dummy_text.stopped,stim_ind_color_rgb_r,stim_ind_color_rgb_g,stim_ind_color_rgb_b,text_break_block.started,text_break_block.stopped,participant,session,accuracy_weighting,color_mapping,block_difficulties,date,expName,psychopyVersion,frameRate,
0,0.9,training,1000000000000,,0,0,0,0,,,,,,,,,,,,,,,,,213.66515105500002,None,d,3.505411568999989,213.76519975200063,None,213.1688860660006,213.58169161500064,217.3016973620006,217.8000423880003,217.3016973620006,None,,,,,,6,001,exponential,bryg,0.75-0.35,2021_May_18_1419,color_judgement_and_subjective_perception,2020.2.10,60.05344804914688,
3,0.9,training,1000000000000,,0,1,1,1,,,,,,,,,,,,,,,,,218.399959931,None,k,1.8025458010006332,218.50006355200003,None,217.8999190630002,218.31675266399998,220.33436218499992,220.83443906400043,220.33436218499992,None,,,,,,6,001,exponential,bryg,0.75-0.35,2021_May_18_1419,color_judgement_and_subjective_perception,2020.2.10,60.05344804914688,
0,0.9,training,1000000000000,,0,2,2,2,,,,,,,,,,,,,,,,,221.43454838900016,None,d,0.9919410479997168,221.5346438480001,None,220.93453971300005,221.35121005400015,222.55158472200037,223.05154696299996,222.55158472200037,None,,,,,,6,001,exponential,bryg,0.75-0.35,2021_May_18_1419,color_judgement_and_subjective_perception,2020.2.10,60.05344804914688,
1,0.9,training,1000000000000,,0,3,3,3,,,,,,,,,,,,,,,,,223.65162586499991,None,f,0.9429700079999748,223.75162228699992,None,223.1514146469999,223.56826934500077,224.71838951500013,225.20291917100076,224.71838951500013,None,,,,,,6,001,exponential,bryg,0.75-0.35,2021_May_18_1419,color_judgement_and_subjective_perception,2020.2.10,60.05344804914688,
0,0.9,training,1000000000000,,0,4,4,4,,,,,,,,,,,,,,,,,225.80296793900015,None,d,0.7438561369999661,225.90281884100023,None,225.30263834000016,225.71942007300004,226.66950531400016,227.16965184000037,226.66950531400016,None,,,,,,6,001,exponential,bryg,0.75-0.35,2021_May_18_1419,color_judgement_and_subjective_perception,2020.2.10,60.05344804914688,
1,0.9,training,1000000000000,,0,5,5,5,,,,,,,,,,,,,,,,,227.76992888400036,None,f,0.8566904050003359,227.8699205440007,None,227.26972498400028,227.68652241200016,228.75312582700008,229.25349164199997,228.75312582700008,None,,,,,,6,001,exponential,bryg,0.75-0.35,2021_May_18_1419,color_judgement_and_subjective_perception,2020.2.10,60.05344804914688,
0,0.9,training,1000000000000,,0,6,6,6,,,,,,,,,,,,,,,,,229.85348118500042,None,d,0.7650769450001462,229.9535338960004,None,229.35336607600038,229.77015669200046,230.7377424260003,231.2376623730006,230.7377424260003,None,,,,,,6,001,exponential,bryg,0.75-0.35,2021_May_18_1419,color_judgement_and_subjective_perception,2020.2.10,60.05344804914688,
3,0.9,training,1000000000000,,0,7,7,7,,,,,,,,,,,,,,,,,231.83795047200056,None,k,1.1327623870001844,231.93784513400078,None,231.33777168400047,231.75447757100028,233.08804614400015,233.58800613900075,233.08804614400015,None,,,,,,6,001,exponential,bryg,0.75-0.35,2021_May_18_1419,color_judgement_and_subjective_perception,2020.2.10,60.05344804914688,
1,0.9,training,1000000000000,,0,8,8,8,,,,,,,,,,,,,,,,,234.18831530600073,None,f,0.9262568020003528,234.2883173730006,None,233.6881232250007,234.10500720400069,235.2390383890006,235.73929219900037,235.2390383890006,None,,,,,,6,001,exponential,bryg,0.75-0.35,2021_May_18_1419,color_judgement_and_subjective_perception,2020.2.10,60.05344804914688,
3,0.9,training,1000000000000,,0,9,9,9,,,,,,,,,,,,,,,,,236.33943913200073,None,k,1.5112185680000039,236.43930915800047,None,235.83928915900015,236.2558889460006,237.97299431600004,238.47309588999997,237.97299431600004,None,,,,,,6,001,exponential,bryg,0.75-0.35,2021_May_18_1419,color_judgement_and_subjective_perception,2020.2.10,60.05344804914688,
2,0.9,training,1000000000000,,0,10,10,10,,,,,,,,,,,,,,,,,239.07304238600045,None,j,0.9614586099996814,239.17305028400006,None,238.57303794000018,238.9897968210007,240.15739303700047,240.65739288400073,240.15739303700047,None,,,,,,6,001,exponential,bryg,0.75-0.35,2021_May_18_1419,color_judgement_and_subjective_perception,2020.2.10,60.05344804914688,
3,0.9,training,1000000000000,,0,11,11,11,,,,,,,,,,,,,,,,,241.25763850100066,None,k,1.216798851999556,241.35772724400067,None,240.75764659000015,241.1741777590005,242.5911377120001,243.09133746499992,242.5911377120001,None,,,,,,6,001,exponential,bryg,0.75-0.35,2021_May_18_1419,color_judgement_and_subjective_perception,2020.2.10,60.05344804914688,
0,0.9,training,1000000000000,,0,12,12,12,,,,,,,,,,,,,,,,,243.69131633100005,None,d,0.9912047180005175,243.79141021400028,None,243.1913254300007,243.60805507700024,244.80805823800074,245.2924825070004,244.80805823800074,None,,,,,,6,001,exponential,bryg,0.75-0.35,2021_May_18_1419,color_judgement_and_subjective_perception,2020.2.10,60.05344804914688,
1,0.9,training,1000000000000,,0,13,13,13,,,,,,,,,,,,,,,,,245.89247393300047,None,f,0.9820543880005062,245.99248660900048,None,245.3923489839999,245.8091500800001,246.9924574810002,247.49294935600028,246.9924574810002,None,,,,,,6,001,exponential,bryg,0.75-0.35,2021_May_18_1419,color_judgement_and_subjective_perception,2020.2.10,60.05344804914688,
2,0.9,training,1000000000000,,0,14,14,14,,,,,,,,,,,,,,,,,248.09299891499995,None,j,0.9336832279996088,248.19287413300026,None,247.59271092400013,248.00955949500076,249.1596430970003,249.65953427900058,249.1596430970003,None,,,,,,6,001,exponential,bryg,0.75-0.35,2021_May_18_1419,color_judgement_and_subjective_perception,2020.2.10,60.05344804914688,
1,0.9,training,1000000000000,,0,15,15,15,,,,,,,,,,,,,,,,,250.24411094400057,None,f,1.2626331100000243,250.34398136300024,None,249.75985760999993,250.1608157360006,251.62741842700052,252.12760683100078,251.62741842700052,None,,,,,,6,001,exponential,bryg,0.75-0.35,2021_May_18_1419,color_judgement_and_subjective_perception,2020.2.10,60.05344804914688,
2,0.9,training,1000000000000,,0,16,16,16,,,,,,,,,,,,,,,,,252.7277951320002,None,j,0.8908220100001927,252.82779098900028,None,252.22772011300003,252.64453928900002,253.74430540899994,254.14450281800055,253.74430540899994,None,,,,,,6,001,exponential,bryg,0.75-0.35,2021_May_18_1419,color_judgement_and_subjective_perception,2020.2.10,60.05344804914688,
1,0.9,training,1000000000000,,0,17,17,17,,,,,,,,,,,,,,,,,254.74478526300027,None,f,1.1617202389998056,254.84477645900006,None,254.24451335699996,254.66146405500058,256.02884762100075,256.52908430000025,256.02884762100075,None,,,,,,6,001,exponential,bryg,0.75-0.35,2021_May_18_1419,color_judgement_and_subjective_perception,2020.2.10,60.05344804914688,
2,0.9,training,1000000000000,,0,18,18,18,,,,,,,,,,,,,,,,,257.1291313820002,None,j,0.6891940069999691,257.2293911350007,None,256.6290072370002,257.0458602100007,257.94601680899996,258.44611113800056,257.94601680899996,None,,,,,,6,001,exponential,bryg,0.75-0.35,2021_May_18_1419,color_judgement_and_subjective_perception,2020.2.10,60.05344804914688,
3,0.9,training,1000000000000,,0,19,19,19,,,,,,,,,,,,,,,,,259.0460889210008,None,k,0.9405556299998352,259.14603923100003,None,258.545980717,258.9628616610007,260.11400006200074,260.61396387700006,260.11400006200074,None,,,,,,6,001,exponential,bryg,0.75-0.35,2021_May_18_1419,color_judgement_and_subjective_perception,2020.2.10,60.05344804914688,
0,0.9,training,1000000000000,,0,20,20,20,,,,,,,,,,,,,,,,,261.2139930050007,None,d,0.9325702169999204,261.3140048660007,None,260.71372207400054,261.1305748670002,262.2641472000005,262.764362074,262.2641472000005,None,,,,,,6,001,exponential,bryg,0.75-0.35,2021_May_18_1419,color_judgement_and_subjective_perception,2020.2.10,60.05344804914688,
2,0.9,training,1000000000000,,0,21,21,21,,,,,,,,,,,,,,,,,263.36433402500006,None,j,0.7342244840001513,263.46431621400006,None,262.86431214300046,263.2811381620004,264.2309867620006,264.7311933890005,264.2309867620006,None,,,,,,6,001,exponential,bryg,0.75-0.35,2021_May_18_1419,color_judgement_and_subjective_perception,2020.2.10,60.05344804914688,
3,0.9,training,1000000000000,,0,22,22,22,,,,,,,,,,,,,,,,,265.3154475430001,None,k,0.7670957030004502,265.41542760300035,None,264.8311287860006,265.2320543599999,266.21538372100076,266.7156119930005,266.21538372100076,None,,,,,,6,001,exponential,bryg,0.75-0.35,2021_May_18_1419,color_judgement_and_subjective_perception,2020.2.10,60.05344804914688,
0,0.9,training,1000000000000,,0,23,23,23,,,,,,,,,,,,,,,,,267.3158047630004,None,d,0.9105745369997749,267.41588003000015,None,266.8156695430007,267.2323789820002,268.3489738010003,268.8492421260007,268.3489738010003,None,,,,,,6,001,exponential,bryg,0.75-0.35,2021_May_18_1419,color_judgement_and_subjective_perception,2020.2.10,60.05344804914688,
3,0.9,training,1000000000000,,0,24,24,24,,,,,,,,,,,,,,,,,269.44941582699994,None,k,0.6971254379996026,269.5494862740006,None,268.949343925,269.3662435420001,270.2671744600002,270.76699960800033,270.2671744600002,None,,,,,,6,001,exponential,bryg,0.75-0.35,2021_May_18_1419,color_judgement_and_subjective_perception,2020.2.10,60.05344804914688,
2,0.9,training,1000000000000,,0,25,25,25,,,,,,,,,,,,,,,,,271.3671836580006,None,j,0.739457155999844,271.467162766,None,270.86706288500045,271.28374196300047,272.23384316900047,272.7341999480004,272.23384316900047,None,,,,,,6,001,exponential,bryg,0.75-0.35,2021_May_18_1419,color_judgement_and_subjective_perception,2020.2.10,60.05344804914688,
1,0.9,training,1000000000000,,0,26,26,26,,,,,,,,,,,,,,,,,273.3341582560006,None,f,0.8524192830000175,273.43416184300077,None,272.8340888950006,273.25074919800045,274.31754430900037,274.8177338400001,274.31754430900037,None,,,,,,6,001,exponential,bryg,0.75-0.35,2021_May_18_1419,color_judgement_and_subjective_perception,2020.2.10,60.05344804914688,
2,0.9,training,1000000000000,,0,27,27,27,,,,,,,,,,,,,,,,,275.40203603700047,None,j,0.8405335939996803,275.5020493210004,None,274.9177426260003,275.31863842800067,276.368520299,276.8689190660007,276.368520299,None,,,,,,6,001,exponential,bryg,0.75-0.35,2021_May_18_1419,color_judgement_and_subjective_perception,2020.2.10,60.05344804914688,
0,0.9,training,1000000000000,,0,28,28,28,,,,,,,,,,,,,,,,,277.4690271720001,None,d,0.6615530829994896,277.56905585500044,None,276.9686977670008,277.38578613500067,278.25226899100016,278.7524467780004,278.25226899100016,None,,,,,,6,001,exponential,bryg,0.75-0.35,2021_May_18_1419,color_judgement_and_subjective_perception,2020.2.10,60.05344804914688,
2,0.9,training,1000000000000,,0,29,29,29,,,,,,,,,,,,,,,,,279.3524729640003,None,j,0.6339898940004787,279.4525789980007,None,278.85247223700026,279.2693618910007,280.10342376600056,280.60371169500013,280.10342376600056,None,,,,,,6,001,exponential,bryg,0.75-0.35,2021_May_18_1419,color_judgement_and_subjective_perception,2020.2.10,60.05344804914688,
1,0.9,training,1000000000000,,0,30,30,30,,,,,,,,,,,,,,,,,281.20365470600063,None,f,0.9668695760001356,281.3036491319999,None,280.703563475,281.1202334899999,282.2869371930001,282.78733903400007,282.2869371930001,None,,,,,,6,001,exponential,bryg,0.75-0.35,2021_May_18_1419,color_judgement_and_subjective_perception,2020.2.10,60.05344804914688,
3,0.9,training,1000000000000,,0,31,31,31,,,,,,,,,,,,,,,,,283.38734226199995,None,k,0.7514169050000419,283.48720664400025,None,282.8872470460001,283.30397970300055,284.27058764400044,284.7709061559999,284.27058764400044,None,,,,,,6,001,exponential,bryg,0.75-0.35,2021_May_18_1419,color_judgement_and_subjective_perception,2020.2.10,60.05344804914688,
1,0.9,training,1000,,,,,,0,0,0,0,,,,,,,,,,,,,292.39049315900047,None,None,-1,292.49047948000043,None,291.89304131300014,292.3071854939999,293.406988062,293.9072353090005,293.406988062,None,,,,,,6,001,exponential,bryg,0.75-0.35,2021_May_18_1419,color_judgement_and_subjective_perception,2020.2.10,60.05344804914688,
3,0.9,training,1000,,,,,,0,1,1,1,,,,,,,,,,,,,294.507527924,None,k,0.5591266090004865,294.6074607650007,None,294.00722001400027,294.42399512000065,295.19151575200067,295.69166242200026,295.19151575200067,None,,,,,,6,001,exponential,bryg,0.75-0.35,2021_May_18_1419,color_judgement_and_subjective_perception,2020.2.10,60.05344804914688,
2,0.9,training,1000,,,,,,0,2,2,2,,,,,,,,,,,,,296.29172126899994,None,j,0.2788645999999062,296.39170830200055,None,295.7916388680005,296.2084597740004,296.69166830500035,297.19194231800066,296.69166830500035,None,,,,,,6,001,exponential,bryg,0.75-0.35,2021_May_18_1419,color_judgement_and_subjective_perception,2020.2.10,60.05344804914688,
0,0.9,training,1000,,,,,,0,3,3,3,,,,,,,,,,,,,297.7918670930003,None,d,0.3627324999997654,297.89183839199995,None,297.29194779000045,297.70858388500073,298.27527492600075,298.77562912400026,298.27527492600075,None,,,,,,6,001,exponential,bryg,0.75-0.35,2021_May_18_1419,color_judgement_and_subjective_perception,2020.2.10,60.05344804914688,
1,0.9,training,1000,,,,,,0,4,4,4,,,,,,,,,,,,,299.3754459219999,None,f,0.4190242680006122,299.47556749700016,None,298.8755534490001,299.292297901,299.9255974880007,300.4099715480006,299.9255974880007,None,,,,,,6,001,exponential,bryg,0.75-0.35,2021_May_18_1419,color_judgement_and_subjective_perception,2020.2.10,60.05344804914688,
3,0.9,training,1000,,,,,,0,5,5,5,,,,,,,,,,,,,301.010029991,None,k,0.6325411630004965,301.1100367150002,None,300.5098665810001,300.9266278190007,301.75988642500033,302.2602870410001,301.75988642500033,None,,,,,,6,001,exponential,bryg,0.75-0.35,2021_May_18_1419,color_judgement_and_subjective_perception,2020.2.10,60.05344804914688,
2,0.9,training,1000,,,,,,0,6,6,6,,,,,,,,,,,,,302.8603045100008,None,j,0.2701948280000579,302.96040480900047,None,302.36014359100045,302.7770751300004,303.2601203160002,303.7603940270001,303.2601203160002,None,,,,,,6,001,exponential,bryg,0.75-0.35,2021_May_18_1419,color_judgement_and_subjective_perception,2020.2.10,60.05344804914688,
1,0.9,training,1000,,,,,,0,7,7,7,,,,,,,,,,,,,304.3606463120004,None,f,0.6662245229999826,304.4604145480007,None,303.86039721900033,304.2772077080008,305.144684893,305.64495175400043,305.144684893,None,,,,,,6,001,exponential,bryg,0.75-0.35,2021_May_18_1419,color_judgement_and_subjective_perception,2020.2.10,60.05344804914688,
3,0.9,training,1000,,,,,,0,8,8,8,,,,,,,,,,,,,306.2449318930003,None,j,0.5175596339995536,306.34505491800064,None,305.74479323300056,306.1615589060002,306.894908233,307.3953281230006,306.894908233,None,,,,,,6,001,exponential,bryg,0.75-0.35,2021_May_18_1419,color_judgement_and_subjective_perception,2020.2.10,60.05344804914688,
1,0.9,training,1000,,,,,,0,9,9,9,,,,,,,,,,,,,307.9953880440007,None,None,-1,308.0952713940005,None,307.4951926240001,307.91193011700034,309.01181501300016,309.51221584500036,309.01181501300016,None,,,,,,6,001,exponential,bryg,0.75-0.35,2021_May_18_1419,color_judgement_and_subjective_perception,2020.2.10,60.05344804914688,
0,0.9,training,1000,,,,,,0,10,10,10,,,,,,,,,,,,,310.0964895420002,None,d,0.5701225879993217,310.1964655720003,None,309.612072676,310.028932704,310.7963483150006,311.29660899100054,310.7963483150006,None,,,,,,6,001,exponential,bryg,0.75-0.35,2021_May_18_1419,color_judgement_and_subjective_perception,2020.2.10,60.05344804914688,
3,0.9,training,1000,,,,,,0,11,11,11,,,,,,,,,,,,,311.89669167300053,None,k,0.521941410999716,311.9966519970003,None,311.3964842230007,311.8133637010005,312.5467501580006,313.04675250700075,312.5467501580006,None,,,,,,6,001,exponential,bryg,0.75-0.35,2021_May_18_1419,color_judgement_and_subjective_perception,2020.2.10,60.05344804914688,
2,0.9,training,1000,,,,,,0,12,12,12,,,,,,,,,,,,,313.64680122000027,None,j,0.29171630600012577,313.74688153400075,None,313.14698332400076,313.56354121999993,314.063624632,314.56383656900016,314.063624632,None,,,,,,6,001,exponential,bryg,0.75-0.35,2021_May_18_1419,color_judgement_and_subjective_perception,2020.2.10,60.05344804914688,
0,0.9,training,1000,,,,,,0,13,13,13,,,,,,,,,,,,,315.1480715480002,None,d,0.4705803160004507,315.24800552800025,None,314.6637762119999,315.07167813200067,315.7479312000005,316.248046187,315.7479312000005,None,,,,,,6,001,exponential,bryg,0.75-0.35,2021_May_18_1419,color_judgement_and_subjective_perception,2020.2.10,60.05344804914688,
1,0.9,training,1000,,,,,,0,14,14,14,,,,,,,,,,,,,316.8480869540008,None,f,0.23438271499981056,316.94817043200055,None,316.3479924050007,316.76499410700035,317.21488330300053,317.7150912040006,317.21488330300053,None,,,,,,6,001,exponential,bryg,0.75-0.35,2021_May_18_1419,color_judgement_and_subjective_perception,2020.2.10,60.05344804914688,
2,0.9,training,1000,,,,,,0,15,15,15,,,,,,,,,,,,,318.3150172400001,None,j,0.479595485999198,318.4150173930002,None,317.81511723099993,318.23168481800076,318.91498963699996,319.41531867699996,318.91498963699996,None,,,,,,6,001,exponential,bryg,0.75-0.35,2021_May_18_1419,color_judgement_and_subjective_perception,2020.2.10,60.05344804914688,
0,0.9,training,1000,,,,,,0,16,16,16,,,,,,,,,,,,,320.0153318729999,None,d,0.5388744339998084,320.09974247900027,None,319.5152464700004,319.93221128799996,320.6661527240003,321.1662803580002,320.6661527240003,None,,,,,,6,001,exponential,bryg,0.75-0.35,2021_May_18_1419,color_judgement_and_subjective_perception,2020.2.10,60.05344804914688,
3,0.9,training,1000,,,,,,0,17,17,17,,,,,,,,,,,,,321.76628593700025,None,k,0.5081427089999124,321.8664635390005,None,321.2662457380002,321.68317332100014,322.3997148080007,322.9000464690007,322.3997148080007,None,,,,,,6,001,exponential,bryg,0.75-0.35,2021_May_18_1419,color_judgement_and_subjective_perception,2020.2.10,60.05344804914688,
1,0.9,training,1000,,,,,,0,18,18,18,,,,,,,,,,,,,323.50006893299997,None,f,0.7345022879999306,323.6000853550004,None,322.99998723299996,323.4168472190004,324.3666183990008,324.86697102000016,324.3666183990008,None,,,,,,6,001,exponential,bryg,0.75-0.35,2021_May_18_1419,color_judgement_and_subjective_perception,2020.2.10,60.05344804914688,
2,0.9,training,1000,,,,,,0,19,19,19,,,,,,,,,,,,,325.45119075799994,None,j,0.5672646809998696,325.5512537300001,None,324.96674994500063,325.3681179710002,326.1510004620004,326.6514403300007,326.1510004620004,None,,,,,,6,001,exponential,bryg,0.75-0.35,2021_May_18_1419,color_judgement_and_subjective_perception,2020.2.10,60.05344804914688,
0,0.9,training,1000,,,,,,0,20,20,20,,,,,,,,,,,,,327.25142432400025,None,d,0.4550566899997648,327.35155846199996,None,326.7512968300007,327.16822171400054,327.83494499300014,328.3347974950002,327.83494499300014,None,,,,,,6,001,exponential,bryg,0.75-0.35,2021_May_18_1419,color_judgement_and_subjective_perception,2020.2.10,60.05344804914688,
2,0.9,training,1000,,,,,,0,21,21,21,,,,,,,,,,,,,328.9350293820007,None,j,0.531473186999392,329.0351425830004,None,328.43497031900006,328.8516196110004,329.5850920360008,330.0764754540005,329.5850920360008,None,,,,,,6,001,exponential,bryg,0.75-0.35,2021_May_18_1419,color_judgement_and_subjective_perception,2020.2.10,60.05344804914688,
1,0.9,training,1000,,,,,,0,22,22,22,,,,,,,,,,,,,330.669508254,None,None,-1,330.76947363900035,None,330.16935006099993,330.58631082600004,331.6860974780002,332.1864151440004,331.6860974780002,None,,,,,,6,001,exponential,bryg,0.75-0.35,2021_May_18_1419,color_judgement_and_subjective_perception,2020.2.10,60.05344804914688,
3,0.9,training,1000,,,,,,0,23,23,23,,,,,,,,,,,,,332.78657677499996,None,k,0.8639808670004641,332.8866374620002,None,332.2864102550002,332.7032475599999,333.76972235300036,334.27009016300053,333.76972235300036,None,,,,,,6,001,exponential,bryg,0.75-0.35,2021_May_18_1419,color_judgement_and_subjective_perception,2020.2.10,60.05344804914688,
0,0.9,training,1000,,,,,,0,24,24,24,,,,,,,,,,,,,334.87008925400005,None,d,0.6045455869998477,334.9700692460001,None,334.36994095000045,334.7868029050005,335.604243535,336.1044618579999,335.604243535,None,,,,,,6,001,exponential,bryg,0.75-0.35,2021_May_18_1419,color_judgement_and_subjective_perception,2020.2.10,60.05344804914688,
2,0.9,training,1000,,,,,,0,25,25,25,,,,,,,,,,,,,336.7045449420002,None,j,0.5461635479996403,336.8044435390002,None,336.2044857630008,336.62100080600067,337.3712112080002,337.87154840600033,337.3712112080002,None,,,,,,6,001,exponential,bryg,0.75-0.35,2021_May_18_1419,color_judgement_and_subjective_perception,2020.2.10,60.05344804914688,
3,0.9,training,1000,,,,,,0,26,26,26,,,,,,,,,,,,,338.47159030700004,None,k,0.8910670559998835,338.57152580599995,None,337.97140486400076,338.38808226400033,339.4881156350002,339.98841042000004,339.4881156350002,None,,,,,,6,001,exponential,bryg,0.75-0.35,2021_May_18_1419,color_judgement_and_subjective_perception,2020.2.10,60.05344804914688,
1,0.9,training,1000,,,,,,0,27,27,27,,,,,,,,,,,,,340.57260621300065,None,f,0.8858469919996423,340.67276489400047,None,340.0809737440004,340.48933802400006,341.58928028900027,342.08959930700075,341.58928028900027,None,,,,,,6,001,exponential,bryg,0.75-0.35,2021_May_18_1419,color_judgement_and_subjective_perception,2020.2.10,60.05344804914688,
3,0.9,training,1000,,,,,,0,28,28,28,,,,,,,,,,,,,342.6897085370001,None,k,0.6248833050003668,342.78970256499997,None,342.1894644660006,342.6063406760004,343.43959132000055,343.9399879749999,343.43959132000055,None,,,,,,6,001,exponential,bryg,0.75-0.35,2021_May_18_1419,color_judgement_and_subjective_perception,2020.2.10,60.05344804914688,
0,0.9,training,1000,,,,,,0,29,29,29,,,,,,,,,,,,,344.5399528530006,None,d,0.5905789680000453,344.64002900800006,None,344.0398058310002,344.4564262870008,345.2574321810007,345.7574628090006,345.2574321810007,None,,,,,,6,001,exponential,bryg,0.75-0.35,2021_May_18_1419,color_judgement_and_subjective_perception,2020.2.10,60.05344804914688,
1,0.9,training,1000,,,,,,0,30,30,30,,,,,,,,,,,,,346.35755370400057,None,f,0.7729925379999258,346.45758835500055,None,345.8575221910005,346.27438159600024,347.2576874860006,347.7578311410007,347.2576874860006,None,,,,,,6,001,exponential,bryg,0.75-0.35,2021_May_18_1419,color_judgement_and_subjective_perception,2020.2.10,60.05344804914688,
2,0.9,training,1000,,,,,,0,31,31,31,,,,,,,,,,,,,348.3577933209999,None,j,0.23661244699997042,348.457972227,None,347.8579419400003,348.2745857280006,348.724640507,349.22488061200056,348.724640507,None,,,,,,6,001,exponential,bryg,0.75-0.35,2021_May_18_1419,color_judgement_and_subjective_perception,2020.2.10,60.05344804914688,
3,0.9,training,1000,,,,,,0,32,32,32,,,,,,,,,,,,,349.82486490300016,None,k,0.23371313200004806,349.9249053580006,None,349.3247159580005,349.74150792,350.17570992900073,350.6756838760002,350.17570992900073,None,,,,,,6,001,exponential,bryg,0.75-0.35,2021_May_18_1419,color_judgement_and_subjective_perception,2020.2.10,60.05344804914688,
2,0.9,training,1000,,,,,,0,33,33,33,,,,,,,,,,,,,351.27591384600055,None,j,0.5507123389998014,351.37581486100044,None,350.7757918410007,351.1925934210003,351.95926164699995,352.45954611400066,351.95926164699995,None,,,,,,6,001,exponential,bryg,0.75-0.35,2021_May_18_1419,color_judgement_and_subjective_perception,2020.2.10,60.05344804914688,
1,0.9,training,1000,,,,,,0,34,34,34,,,,,,,,,,,,,353.0596395450002,None,f,0.3749393890002466,353.1596548940006,None,352.55950181000026,352.97619602600025,353.55954181800007,354.0596551280005,353.55954181800007,None,,,,,,6,001,exponential,bryg,0.75-0.35,2021_May_18_1419,color_judgement_and_subjective_perception,2020.2.10,60.05344804914688,
0,0.9,training,1000,,,,,,0,35,35,35,,,,,,,,,,,,,354.6597300020003,None,d,0.2628627409994806,354.7597620910001,None,354.1595742290001,354.5765143940007,355.0430219210002,355.5275425150003,355.0430219210002,None,,,,,,6,001,exponential,bryg,0.75-0.35,2021_May_18_1419,color_judgement_and_subjective_perception,2020.2.10,60.05344804914688,
3,0.9,training,1000,,,,,,0,36,36,36,,,,,,,,,,,,,356.127505769,None,k,0.5391198060005991,356.22749123300036,None,355.6273188040004,356.04403042600006,356.7941295520004,357.29444996000075,356.7941295520004,None,,,,,,6,001,exponential,bryg,0.75-0.35,2021_May_18_1419,color_judgement_and_subjective_perception,2020.2.10,60.05344804914688,
0,0.9,training,1000,,,,,,0,37,37,37,,,,,,,,,,,,,357.8944107269999,None,d,0.5880295380002281,357.9946394790004,None,357.3943220380006,357.8112050059999,358.61094821200004,359.1109017480003,358.61094821200004,None,,,,,,6,001,exponential,bryg,0.75-0.35,2021_May_18_1419,color_judgement_and_subjective_perception,2020.2.10,60.05344804914688,
2,0.9,training,1000,,,,,,0,38,38,38,,,,,,,,,,,,,359.7110404110008,None,j,0.4195631610000419,359.8110152449999,None,359.21115439000005,359.62772148800013,360.26229246,360.76250095700016,360.26229246,None,,,,,,6,001,exponential,bryg,0.75-0.35,2021_May_18_1419,color_judgement_and_subjective_perception,2020.2.10,60.05344804914688,
1,0.9,training,1000,,,,,,0,39,39,39,,,,,,,,,,,,,361.3622023900007,None,f,0.7042602540004737,361.46235469400017,None,360.8622839180007,361.2789652199999,362.1957370710006,362.69603991700023,362.1957370710006,None,,,,,,6,001,exponential,bryg,0.75-0.35,2021_May_18_1419,color_judgement_and_subjective_perception,2020.2.10,60.05344804914688,
0,0.9,training,1000,,,,,,0,40,40,40,,,,,,,,,,,,,363.29610425600004,None,d,0.47452020899982017,363.3960939920007,None,362.79604312100037,363.2128072080004,363.8959103040006,364.3962774870006,363.8959103040006,None,,,,,,6,001,exponential,bryg,0.75-0.35,2021_May_18_1419,color_judgement_and_subjective_perception,2020.2.10,60.05344804914688,
3,0.9,training,1000,,,,,,0,41,41,41,,,,,,,,,,,,,364.9963500520007,None,k,0.3589484169997377,365.08765094499995,None,364.4961348330007,364.91300502500053,365.46381117800047,365.9640098030004,365.46381117800047,None,,,,,,6,001,exponential,bryg,0.75-0.35,2021_May_18_1419,color_judgement_and_subjective_perception,2020.2.10,60.05344804914688,
0,0.9,training,1000,,,,,,0,42,42,42,,,,,,,,,,,,,366.56411536199994,None,d,0.3904966769996463,366.6640982250001,None,366.0639127459999,366.4805870680002,367.0806725470002,367.58101966899994,367.0806725470002,None,,,,,,6,001,exponential,bryg,0.75-0.35,2021_May_18_1419,color_judgement_and_subjective_perception,2020.2.10,60.05344804914688,
2,0.9,training,1000,,,,,,0,43,43,43,,,,,,,,,,,,,368.18108221700004,None,j,0.49360137799976656,368.2810169610002,None,367.6808954750004,368.0976193680008,368.79755703200044,369.2977050220006,368.79755703200044,None,,,,,,6,001,exponential,bryg,0.75-0.35,2021_May_18_1419,color_judgement_and_subjective_perception,2020.2.10,60.05344804914688,
1,0.9,training,1000,,,,,,0,44,44,44,,,,,,,,,,,,,369.8979623160003,None,f,0.416657177000161,369.9979519790004,None,369.3977496790003,369.81463210700076,370.4320177210002,370.93212904900065,370.4320177210002,None,,,,,,6,001,exponential,bryg,0.75-0.35,2021_May_18_1419,color_judgement_and_subjective_perception,2020.2.10,60.05344804914688,
2,0.9,training,1000,,,,,,0,45,45,45,,,,,,,,,,,,,371.53229408600055,None,j,0.5022706800000378,371.632338806,None,371.03205066600003,371.4488309110002,372.1656165410004,372.6658021200001,372.1656165410004,None,,,,,,6,001,exponential,bryg,0.75-0.35,2021_May_18_1419,color_judgement_and_subjective_perception,2020.2.10,60.05344804914688,
0,0.9,training,1000,,,,,,0,46,46,46,,,,,,,,,,,,,373.2657522420004,None,d,0.41679165699952136,373.3658574840001,None,372.7658607660005,373.1825487220003,373.7991523540004,374.2993776100002,373.7991523540004,None,,,,,,6,001,exponential,bryg,0.75-0.35,2021_May_18_1419,color_judgement_and_subjective_perception,2020.2.10,60.05344804914688,
3,0.9,training,1000,,,,,,0,47,47,47,,,,,,,,,,,,,374.89964255700033,None,k,0.4071189249998497,374.99947497800076,None,374.39941130900024,374.8160695790002,375.4334423959999,375.9336979310001,375.4334423959999,None,,,,,,6,001,exponential,bryg,0.75-0.35,2021_May_18_1419,color_judgement_and_subjective_perception,2020.2.10,60.05344804914688,
2,0.9,training,1000,,,,,,0,48,48,48,,,,,,,,,,,,,376.53381522400014,None,j,0.33275656800014985,376.633865795,None,376.0336395960003,376.45049112800007,376.9837890860008,377.4841356700008,376.9837890860008,None,,,,,,6,001,exponential,bryg,0.75-0.35,2021_May_18_1419,color_judgement_and_subjective_perception,2020.2.10,60.05344804914688,
0,0.9,training,1000,,,,,,0,49,49,49,,,,,,,,,,,,,378.0840633070002,None,d,0.5345157420006217,378.18407049300004,None,377.58397870000044,378.0008039760005,378.7506375290004,379.2509959480003,378.7506375290004,None,,,,,,6,001,exponential,bryg,0.75-0.35,2021_May_18_1419,color_judgement_and_subjective_perception,2020.2.10,60.05344804914688,
3,0.9,training,1000,,,,,,0,50,50,50,,,,,,,,,,,,,379.851102009,None,k,0.5356117159999485,379.9509731220005,None,379.35089087600045,379.7677670890007,380.518468147,381.01875416500025,380.518468147,None,,,,,,6,001,exponential,bryg,0.75-0.35,2021_May_18_1419,color_judgement_and_subjective_perception,2020.2.10,60.05344804914688,
3,0.9,training,1000,,,,,,0,51,51,51,,,,,,,,,,,,,381.6188571540006,None,k,0.5277299259996653,381.71876331300064,None,381.11857554700055,381.53535179700066,382.26862615200025,382.7690923570008,382.26862615200025,None,,,,,,6,001,exponential,bryg,0.75-0.35,2021_May_18_1419,color_judgement_and_subjective_perception,2020.2.10,60.05344804914688,
1,0.9,training,1000,,,,,,0,52,52,52,,,,,,,,,,,,,383.3691020470005,None,f,0.6495346649999192,383.4690468230001,None,382.86898218700026,383.28572601500036,384.1357482170006,384.63604489499994,384.1357482170006,None,,,,,,6,001,exponential,bryg,0.75-0.35,2021_May_18_1419,color_judgement_and_subjective_perception,2020.2.10,60.05344804914688,
1,0.9,training,1000,,,,,,0,53,53,53,,,,,,,,,,,,,385.22030435000033,None,f,0.3904469239996615,385.32016310400013,None,384.7358578760004,385.13699789100065,385.73693544400066,386.2369115670008,385.73693544400066,None,,,,,,6,001,exponential,bryg,0.75-0.35,2021_May_18_1419,color_judgement_and_subjective_perception,2020.2.10,60.05344804914688,
0,0.9,training,1000,,,,,,0,54,54,54,,,,,,,,,,,,,386.8370656040006,None,d,0.477371516999483,386.93713614100034,None,386.3369621800002,386.7536643990006,387.4369526970004,387.93742807500075,387.4369526970004,None,,,,,,6,001,exponential,bryg,0.75-0.35,2021_May_18_1419,color_judgement_and_subjective_perception,2020.2.10,60.05344804914688,
2,0.9,training,1000,,,,,,0,55,55,55,,,,,,,,,,,,,388.53734106400043,None,j,0.4972398269992482,388.63737791099993,None,388.03717837100066,388.45395244500014,389.15402586600067,389.65424486900065,389.15402586600067,None,,,,,,6,001,exponential,bryg,0.75-0.35,2021_May_18_1419,color_judgement_and_subjective_perception,2020.2.10,60.05344804914688,
0,0.9,training,1000,,,,,,0,56,56,56,,,,,,,,,,,,,390.2385221100003,None,d,0.4601285189992268,390.3385076530003,None,389.7541965770006,390.155220996,390.8216806540004,391.3218880880004,390.8216806540004,None,,,,,,6,001,exponential,bryg,0.75-0.35,2021_May_18_1419,color_judgement_and_subjective_perception,2020.2.10,60.05344804914688,
0,0.9,training,1000,,,,,,0,57,57,57,,,,,,,,,,,,,391.9220065770005,None,d,0.4245724060001521,392.0220396000004,None,391.42198193400054,391.83860656600064,392.4720768520001,392.9722868610006,392.4720768520001,None,,,,,,6,001,exponential,bryg,0.75-0.35,2021_May_18_1419,color_judgement_and_subjective_perception,2020.2.10,60.05344804914688,
0,0.9,training,1000,,,,,,0,58,58,58,,,,,,,,,,,,,393.57220961800067,None,d,0.39035135399990395,393.6722605040004,None,393.0720199940006,393.4888288259999,394.0888833680001,394.58909261400004,394.0888833680001,None,,,,,,6,001,exponential,bryg,0.75-0.35,2021_May_18_1419,color_judgement_and_subjective_perception,2020.2.10,60.05344804914688,
1,0.9,training,1000,,,,,,0,59,59,59,,,,,,,,,,,,,395.1733499030006,None,f,0.4450950730006298,395.273515631,None,394.6892835100007,395.09719283600043,395.7399182530007,396.24001216000033,395.7399182530007,None,,,,,,6,001,exponential,bryg,0.75-0.35,2021_May_18_1419,color_judgement_and_subjective_perception,2020.2.10,60.05344804914688,
1,0.9,training,1000,,,,,,0,60,60,60,,,,,,,,,,,,,396.8403262560005,None,f,0.33028973799991945,396.9403334210001,None,396.34004016000017,396.75695926000026,397.2902188380003,397.7905249920004,397.2902188380003,None,,,,,,6,001,exponential,bryg,0.75-0.35,2021_May_18_1419,color_judgement_and_subjective_perception,2020.2.10,60.05344804914688,
1,0.9,training,1000,,,,,,0,61,61,61,,,,,,,,,,,,,398.3904331240001,None,f,0.26805784000043786,398.4905325190002,None,397.8904100489999,398.3070710480006,398.7903136220002,399.29062019699995,398.7903136220002,None,,,,,,6,001,exponential,bryg,0.75-0.35,2021_May_18_1419,color_judgement_and_subjective_perception,2020.2.10,60.05344804914688,
1,0.9,training,1000,,,,,,0,62,62,62,,,,,,,,,,,,,399.89081926000017,None,f,0.27183897600025375,399.99078150100013,None,399.3905698110002,399.8074222280002,400.2914621730006,400.7917598520007,400.2914621730006,None,,,,,,6,001,exponential,bryg,0.75-0.35,2021_May_18_1419,color_judgement_and_subjective_perception,2020.2.10,60.05344804914688,
3,0.9,training,1000,,,,,,0,63,63,63,,,,,,,,,,,,,401.3917293220002,None,k,0.6108944349998637,401.49162121800055,None,400.8916535600001,401.3084142280004,402.12515105000057,402.6253018390007,402.12515105000057,None,,,,,,6,001,exponential,bryg,0.75-0.35,2021_May_18_1419,color_judgement_and_subjective_perception,2020.2.10,60.05344804914688,
2,0.9,training,1000,,,,,,0,64,64,64,,,,,,,,,,,,,403.22541554300005,None,j,0.4412494839998544,403.3253642240006,None,402.72537774300054,403.14216591200056,403.79182684700027,404.2923004430004,403.79182684700027,None,,,,,,6,001,exponential,bryg,0.75-0.35,2021_May_18_1419,color_judgement_and_subjective_perception,2020.2.10,60.05344804914688,
0,0.9,training,1000,,,,,,0,65,65,65,,,,,,,,,,,,,404.8923834699999,None,d,0.46214462999978423,404.99233852399993,None,404.3920525000003,404.80910443300036,405.47657458200047,405.9766319200007,405.47657458200047,None,,,,,,6,001,exponential,bryg,0.75-0.35,2021_May_18_1419,color_judgement_and_subjective_perception,2020.2.10,60.05344804914688,
3,0.9,training,1000,,,,,,0,66,66,66,,,,,,,,,,,,,406.5767719260002,None,k,0.7140085390001332,406.67659650800033,None,406.0766912050003,406.4933901050008,407.4102116439999,407.91035452400047,407.4102116439999,None,,,,,,6,001,exponential,bryg,0.75-0.35,2021_May_18_1419,color_judgement_and_subjective_perception,2020.2.10,60.05344804914688,
0,0.9,training,1000,,,,,,0,67,67,67,,,,,,,,,,,,,408.5103215879999,None,d,0.4682099689998722,408.610405419,None,408.0103355230003,408.4271563400007,409.11029485400013,409.6105969600003,409.11029485400013,None,,,,,,6,001,exponential,bryg,0.75-0.35,2021_May_18_1419,color_judgement_and_subjective_perception,2020.2.10,60.05344804914688,
0,0.9,training,1000,,,,,,0,68,68,68,,,,,,,,,,,,,410.1948005100003,None,d,0.4878917050000382,410.2947511800003,None,409.71054735100006,410.11176879400045,410.81140778900044,411.3116282640003,410.81140778900044,None,,,,,,6,001,exponential,bryg,0.75-0.35,2021_May_18_1419,color_judgement_and_subjective_perception,2020.2.10,60.05344804914688,
2,0.9,training,1000,,,,,,0,69,69,69,,,,,,,,,,,,,411.91169003899995,None,j,0.42686280199995963,412.011731736,None,411.41155378000076,411.82833949199994,412.46174059200075,412.96197860100074,412.46174059200075,None,,,,,,6,001,exponential,bryg,0.75-0.35,2021_May_18_1419,color_judgement_and_subjective_perception,2020.2.10,60.05344804914688,
2,0.9,training,1000,,,,,,0,70,70,70,,,,,,,,,,,,,413.561977675,None,j,0.40865657100039243,413.6619368360007,None,413.0618715170003,413.4786329990002,414.0951888970003,414.5953464410004,414.0951888970003,None,,,,,,6,001,exponential,bryg,0.75-0.35,2021_May_18_1419,color_judgement_and_subjective_perception,2020.2.10,60.05344804914688,
3,0.9,training,1000,,,,,,0,71,71,71,,,,,,,,,,,,,415.17978235900046,None,k,0.5988333730001614,415.2797759320001,None,414.6954827590007,415.1035889730001,415.89628169500065,416.39652956200007,415.89628169500065,None,,,,,,6,001,exponential,bryg,0.75-0.35,2021_May_18_1419,color_judgement_and_subjective_perception,2020.2.10,60.05344804914688,
3,0.9,training,1000,,,,,,0,72,72,72,,,,,,,,,,,,,416.9967336489999,None,k,0.4459480280002026,417.0966577650006,None,416.4966101740001,416.913212511,417.56332799200027,418.06353543000023,417.56332799200027,None,,,,,,6,001,exponential,bryg,0.75-0.35,2021_May_18_1419,color_judgement_and_subjective_perception,2020.2.10,60.05344804914688,
1,0.9,training,1000,,,,,,0,73,73,73,,,,,,,,,,,,,418.663442862,None,f,0.46690011200007575,418.7636218300004,None,418.1634245089999,418.580065481,419.26340938700014,419.7637624839999,419.26340938700014,None,,,,,,6,001,exponential,bryg,0.75-0.35,2021_May_18_1419,color_judgement_and_subjective_perception,2020.2.10,60.05344804914688,
3,0.9,training,1000,,,,,,0,74,74,74,,,,,,,,,,,,,420.3478130020003,None,k,0.8146957620001558,420.447900182,None,419.86365044800004,420.26463608800077,421.28128095600005,421.78151927199997,421.28128095600005,None,,,,,,6,001,exponential,bryg,0.75-0.35,2021_May_18_1419,color_judgement_and_subjective_perception,2020.2.10,60.05344804914688,
2,0.9,training,1000,,,,,,0,75,75,75,,,,,,,,,,,,,422.3817063920005,None,j,0.6049291989993435,422.4816821940003,None,421.8812897120006,422.29819457100075,423.11497714800043,423.61516106199997,423.11497714800043,None,,,,,,6,001,exponential,bryg,0.75-0.35,2021_May_18_1419,color_judgement_and_subjective_perception,2020.2.10,60.05344804914688,
3,0.9,training,1000,,,,,,0,76,76,76,,,,,,,,,,,,,424.2152235700005,None,k,0.5393148800003473,424.315294299,None,423.71495519900054,424.13172973700057,424.8818227700003,425.3662729000007,424.8818227700003,None,,,,,,6,001,exponential,bryg,0.75-0.35,2021_May_18_1419,color_judgement_and_subjective_perception,2020.2.10,60.05344804914688,
2,0.9,training,1000,,,,,,0,77,77,77,,,,,,,,,,,,,425.9663382260005,None,j,0.30013428300026135,426.06644495,None,425.46622197600027,425.8829347050005,426.39955770800043,426.8997822830006,426.39955770800043,None,,,,,,6,001,exponential,bryg,0.75-0.35,2021_May_18_1419,color_judgement_and_subjective_perception,2020.2.10,60.05344804914688,
1,0.9,training,1000,,,,,,0,78,78,78,,,,,,,,,,,,,427.50001357100064,None,f,0.606482777000565,427.60013057500055,None,426.9997251100003,427.41653868400044,428.23327406000044,428.73343109600046,428.23327406000044,None,,,,,,6,001,exponential,bryg,0.75-0.35,2021_May_18_1419,color_judgement_and_subjective_perception,2020.2.10,60.05344804914688,
3,0.9,training,1000,,,,,,0,79,79,79,,,,,,,,,,,,,429.3334847470005,None,k,0.5170152270002291,429.43350604900024,None,428.8332990429999,429.25013190200025,429.9835296199999,430.4677749729999,429.9835296199999,None,,,,,,6,001,exponential,bryg,0.75-0.35,2021_May_18_1419,color_judgement_and_subjective_perception,2020.2.10,60.05344804914688,
2,0.9,training,1000,,,,,,0,80,80,80,,,,,,,,,,,,,431.0677664040004,None,j,0.4148175339996669,431.16777785700015,None,430.56779728400033,430.984532941,431.6012943129999,432.10142988700045,431.6012943129999,None,,,,,,6,001,exponential,bryg,0.75-0.35,2021_May_18_1419,color_judgement_and_subjective_perception,2020.2.10,60.05344804914688,
0,0.9,training,1000,,,,,,0,81,81,81,,,,,,,,,,,,,432.7016140380001,None,d,0.47705684500033385,432.8015868270004,None,432.20138767200024,432.6182635770001,433.3015118330004,433.80169648800074,433.3015118330004,None,,,,,,6,001,exponential,bryg,0.75-0.35,2021_May_18_1419,color_judgement_and_subjective_perception,2020.2.10,60.05344804914688,
2,0.9,training,1000,,,,,,0,82,82,82,,,,,,,,,,,,,434.40178288900006,None,None,-1,434.50182204000066,None,433.90157233300033,434.31834896000055,435.40265932500006,435.90276063500005,435.40265932500006,None,,,,,,6,001,exponential,bryg,0.75-0.35,2021_May_18_1419,color_judgement_and_subjective_perception,2020.2.10,60.05344804914688,
2,0.9,training,1000,,,,,,0,83,83,83,,,,,,,,,,,,,436.50292332000026,None,j,0.5636975070001427,436.60290634100056,None,436.00266489000023,436.4196149670006,437.1862455090004,437.68647579000026,437.1862455090004,None,,,,,,6,001,exponential,bryg,0.75-0.35,2021_May_18_1419,color_judgement_and_subjective_perception,2020.2.10,60.05344804914688,
1,0.9,training,1000,,,,,,0,84,84,84,,,,,,,,,,,,,438.2864161760008,None,f,0.5161045549994014,438.3865046840001,None,437.7864883580005,438.2030867070007,438.91965388600056,439.41995827900064,438.91965388600056,None,,,,,,6,001,exponential,bryg,0.75-0.35,2021_May_18_1419,color_judgement_and_subjective_perception,2020.2.10,60.05344804914688,
2,0.9,training,1000,,,,,,0,85,85,85,,,,,,,,,,,,,440.020180384,None,j,0.5111425960003544,440.1114743170001,None,439.51987175200065,439.93683882300047,440.6542579730003,441.1543655260002,440.6542579730003,None,,,,,,6,001,exponential,bryg,0.75-0.35,2021_May_18_1419,color_judgement_and_subjective_perception,2020.2.10,60.05344804914688,
0,0.9,training,1000,,,,,,0,86,86,86,,,,,,,,,,,,,441.75451140400037,None,d,0.4801737179996053,441.8544491440007,None,441.25434361600037,441.6710952120002,442.35439094200046,442.85492753500057,442.35439094200046,None,,,,,,6,001,exponential,bryg,0.75-0.35,2021_May_18_1419,color_judgement_and_subjective_perception,2020.2.10,60.05344804914688,
1,0.9,training,1000,,,,,,0,87,87,87,,,,,,,,,,,,,443.4546996429999,None,None,-1,443.55475293700056,None,442.95477260999996,443.37146740000026,444.4714798640007,444.9717737130004,444.4714798640007,None,,,,,,6,001,exponential,bryg,0.75-0.35,2021_May_18_1419,color_judgement_and_subjective_perception,2020.2.10,60.05344804914688,
3,0.9,training,1000,,,,,,0,88,88,88,,,,,,,,,,,,,445.5559071840007,None,k,0.6146823449998919,445.655913091,None,445.07161305499994,445.4724633100004,446.2891514840003,446.78942244100017,446.2891514840003,None,,,,,,6,001,exponential,bryg,0.75-0.35,2021_May_18_1419,color_judgement_and_subjective_perception,2020.2.10,60.05344804914688,
0,0.9,training,1000,,,,,,0,89,89,89,,,,,,,,,,,,,447.3894086770006,None,d,0.5090741789999811,447.4895186270005,None,446.8894796710001,447.3063024810008,448.022645602,448.5230553770007,448.022645602,None,,,,,,6,001,exponential,bryg,0.75-0.35,2021_May_18_1419,color_judgement_and_subjective_perception,2020.2.10,60.05344804914688,
3,0.9,training,1000,,,,,,0,90,90,90,,,,,,,,,,,,,449.12320269500015,None,f,0.7434958040003039,449.22309642000073,None,448.62303832900034,449.0396648620008,449.9896705680003,450.4742071770006,449.9896705680003,None,,,,,,6,001,exponential,bryg,0.75-0.35,2021_May_18_1419,color_judgement_and_subjective_perception,2020.2.10,60.05344804914688,
1,0.9,training,1000,,,,,,0,91,91,91,,,,,,,,,,,,,451.07427895,None,f,0.5364373800002795,451.1741305250007,None,450.5741263530008,450.990772141,451.7408060050002,452.2411632100002,451.7408060050002,None,,,,,,6,001,exponential,bryg,0.75-0.35,2021_May_18_1419,color_judgement_and_subjective_perception,2020.2.10,60.05344804914688,
0,0.9,training,1000,,,,,,0,92,92,92,,,,,,,,,,,,,452.84131675700064,None,d,0.4812699029998839,452.9413521710003,None,452.3411288269999,452.75789661700037,453.44106213600026,453.9416670520004,453.44106213600026,None,,,,,,6,001,exponential,bryg,0.75-0.35,2021_May_18_1419,color_judgement_and_subjective_perception,2020.2.10,60.05344804914688,
2,0.9,training,1000,,,,,,0,93,93,93,,,,,,,,,,,,,454.541317835,None,j,0.4370364989999871,454.6415730010003,None,454.0413334450004,454.45805723600006,455.1068194080008,455.5924932759999,455.1068194080008,None,,,,,,6,001,exponential,bryg,0.75-0.35,2021_May_18_1419,color_judgement_and_subjective_perception,2020.2.10,60.05344804914688,
1,0.9,training,1000,,,,,,0,94,94,94,,,,,,,,,,,,,456.1924639980007,None,f,0.4501790260001144,456.2924530350001,None,455.69239051100067,456.1091186520007,456.7591081970004,457.25944422000066,456.7591081970004,None,,,,,,6,001,exponential,bryg,0.75-0.35,2021_May_18_1419,color_judgement_and_subjective_perception,2020.2.10,60.05344804914688,
3,0.9,training,1000,,,,,,0,95,95,95,,,,,,,,,,,,,457.8596819660006,None,k,0.26314415500019095,457.9594592020003,None,457.35944616899997,457.7761865700004,458.2426937250002,458.7428007590006,458.2426937250002,None,,,,,,6,001,exponential,bryg,0.75-0.35,2021_May_18_1419,color_judgement_and_subjective_perception,2020.2.10,60.05344804914688,
0,0.75,testing,1000,1,,,,,,,,,0,0,0,0,0,0,0,0,,,,,467.1793281480004,None,None,-1,467.2792453710008,None,466.6811279480007,467.09584049300065,468.19593027000064,468.6959913420005,468.19593027000064,None,0,0,40,,,6,001,exponential,bryg,0.75-0.35,2021_May_18_1419,color_judgement_and_subjective_perception,2020.2.10,60.05344804914688,
2,0.75,testing,1000,1,,,,,,,,,0,0,0,0,0,1,1,2,,,,,469.2962234860006,None,f,0.5544117079998614,469.3962106020008,None,468.7960863970002,469.21277437700064,469.9794354100004,470.46377284900063,469.9794354100004,None,30,30,0,,,6,001,exponential,bryg,0.75-0.35,2021_May_18_1419,color_judgement_and_subjective_perception,2020.2.10,60.05344804914688,
3,0.75,testing,1000,1,,,,,,,,,0,0,0,0,0,2,2,3,,,,,471.06385530400075,None,d,0.13077587000043422,471.1638289450002,None,470.56377493500077,470.98056999000073,471.31380011000056,471.81384962300035,471.31380011000056,None,0,52,0,,,6,001,exponential,bryg,0.75-0.35,2021_May_18_1419,color_judgement_and_subjective_perception,2020.2.10,60.05344804914688,
1,0.75,testing,1000,1,,,,,,,,,0,0,0,0,0,3,3,1,,,,,472.4139936540005,None,j,0.5482883929998934,472.5142921760007,None,471.9139786900005,472.33082730300066,473.08087376300045,473.58093257200017,473.08087376300045,None,40,13,0,,,6,001,exponential,bryg,0.75-0.35,2021_May_18_1419,color_judgement_and_subjective_perception,2020.2.10,60.05344804914688,
0,0.75,testing,1000,1,,,,,,,,,0,0,0,0,1,0,4,0,,,,,474.181165815,None,d,0.6294398609998098,474.28118157600056,None,473.68094183500034,474.09763308400034,474.93102883700067,475.4155267340002,474.93102883700067,None,0,0,45,,,6,001,exponential,bryg,0.75-0.35,2021_May_18_1419,color_judgement_and_subjective_perception,2020.2.10,60.05344804914688,
1,0.75,testing,1000,1,,,,,,,,,0,0,0,0,1,1,5,1,,,,,476.0155568630007,None,f,0.6432381280001209,476.11536820900074,None,475.5152382030001,475.93201159100045,476.78208561300016,477.2822471899999,476.78208561300016,None,43,14,0,,,6,001,exponential,bryg,0.75-0.35,2021_May_18_1419,color_judgement_and_subjective_perception,2020.2.10,60.05344804914688,
3,0.75,testing,1000,1,,,,,,,,,0,0,0,0,1,2,6,3,,,,,477.8825196150001,None,j,0.5280642070001704,477.9825351490008,None,477.3823514880005,477.7991009410007,478.5324459809999,479.03256269600024,478.5324459809999,None,0,57,0,,,6,001,exponential,bryg,0.75-0.35,2021_May_18_1419,color_judgement_and_subjective_perception,2020.2.10,60.05344804914688,
2,0.75,testing,1000,1,,,,,,,,,0,0,0,0,1,3,7,2,,,,,479.6326732719999,None,f,0.7698041030007516,479.7328045110007,None,479.13263183600066,479.5492973520004,480.5334963340001,481.03374901500047,480.5334963340001,None,37,37,0,,,6,001,exponential,bryg,0.75-0.35,2021_May_18_1419,color_judgement_and_subjective_perception,2020.2.10,60.05344804914688,
2,0.75,testing,1000,1,,,,,,,,,0,0,0,0,2,0,8,2,,,,,481.63397346000056,None,d,0.424708293000549,481.7339063449999,None,481.1338376570002,481.5503154880007,482.1835250280001,482.6841769970006,482.1835250280001,None,39,39,0,,,6,001,exponential,bryg,0.75-0.35,2021_May_18_1419,color_judgement_and_subjective_perception,2020.2.10,60.05344804914688,
1,0.75,testing,1000,1,,,,,,,,,0,0,0,0,2,1,9,1,,,,,483.28407189100017,None,j,0.39844330699997954,483.38419891600006,None,482.78393431400036,483.2007955730005,483.800689961,484.3009363270003,483.800689961,None,48,16,0,,,6,001,exponential,bryg,0.75-0.35,2021_May_18_1419,color_judgement_and_subjective_perception,2020.2.10,60.05344804914688,
0,0.75,testing,1000,1,,,,,,,,,0,0,0,0,2,2,10,0,,,,,484.90112989800036,None,k,0.5255865959998118,485.0010068520005,None,484.4007245800003,484.81782233100057,485.55182490400057,486.05194964900056,485.55182490400057,None,0,0,52,,,6,001,exponential,bryg,0.75-0.35,2021_May_18_1419,color_judgement_and_subjective_perception,2020.2.10,60.05344804914688,
3,0.75,testing,1000,1,,,,,,,,,0,0,0,0,2,3,11,3,,,,,486.6519914640003,None,None,-1,486.75200907,None,486.1519116790005,486.5686827210002,487.6688973650007,488.169091064,487.6688973650007,None,0,63,0,,,6,001,exponential,bryg,0.75-0.35,2021_May_18_1419,color_judgement_and_subjective_perception,2020.2.10,60.05344804914688,
1,0.75,testing,1000,1,,,,,,,,,0,0,0,0,3,0,12,1,,,,,488.7690742800005,None,None,-1,488.86905980900065,None,488.2689587630002,488.68556655700013,489.7857886640004,490.2702820630002,489.7857886640004,None,52,17,0,,,6,001,exponential,bryg,0.75-0.35,2021_May_18_1419,color_judgement_and_subjective_perception,2020.2.10,60.05344804914688,
3,0.75,testing,1000,1,,,,,,,,,0,0,0,0,3,1,13,3,,,,,490.87025204900056,None,k,0.7564374059993497,490.9701756710001,None,490.37014768300014,490.7868208489999,491.75353186100074,492.2537304289999,491.75353186100074,None,0,66,0,,,6,001,exponential,bryg,0.75-0.35,2021_May_18_1419,color_judgement_and_subjective_perception,2020.2.10,60.05344804914688,
0,0.75,testing,1000,1,,,,,,,,,0,0,0,0,3,2,14,0,,,,,492.85398509900006,None,d,0.6606128630000967,492.95387746100005,None,492.3536666300006,492.77062256299996,493.6371103010006,494.1374774149999,493.6371103010006,None,0,0,57,,,6,001,exponential,bryg,0.75-0.35,2021_May_18_1419,color_judgement_and_subjective_perception,2020.2.10,60.05344804914688,
2,0.75,testing,1000,1,,,,,,,,,0,0,0,0,3,3,15,2,,,,,494.7375997270001,None,j,0.6811169470001914,494.837487668,None,494.23742945699996,494.65411614300046,495.5382277580002,496.0383142990004,495.5382277580002,None,47,47,0,,,6,001,exponential,bryg,0.75-0.35,2021_May_18_1419,color_judgement_and_subjective_perception,2020.2.10,60.05344804914688,
1,0.75,testing,1000,1,,,,,,,,,0,0,0,0,4,0,16,1,,,,,496.6385951330003,None,f,0.5240521899995656,496.738561311,None,496.13837659599994,496.55509688500024,497.2884338020003,497.7888906980006,497.2884338020003,None,57,19,0,,,6,001,exponential,bryg,0.75-0.35,2021_May_18_1419,color_judgement_and_subjective_perception,2020.2.10,60.05344804914688,
3,0.75,testing,1000,1,,,,,,,,,0,0,0,0,4,1,17,3,,,,,498.388900078,None,k,0.48573534399929486,498.4888744560003,None,497.88867522200053,498.30551400400054,499.00555884700043,499.50579869100056,499.00555884700043,None,0,69,0,,,6,001,exponential,bryg,0.75-0.35,2021_May_18_1419,color_judgement_and_subjective_perception,2020.2.10,60.05344804914688,
2,0.75,testing,1000,1,,,,,,,,,0,0,0,0,4,2,18,2,,,,,500.1058190070007,None,d,0.7046194599997762,500.1900692340005,None,499.60566929500055,500.0225009220003,500.9231577240007,501.4234202730004,500.9231577240007,None,47,47,0,,,6,001,exponential,bryg,0.75-0.35,2021_May_18_1419,color_judgement_and_subjective_perception,2020.2.10,60.05344804914688,
0,0.75,testing,1000,1,,,,,,,,,0,0,0,0,4,3,19,0,,,,,502.023626618,None,f,0.5870092350005507,502.1235843510003,None,501.52323905400044,501.94021084700034,502.7403106340007,503.2403840780007,502.7403106340007,None,0,0,59,,,6,001,exponential,bryg,0.75-0.35,2021_May_18_1419,color_judgement_and_subjective_perception,2020.2.10,60.05344804914688,
2,0.75,testing,1000,1,,,,,,,,,0,0,0,0,5,0,20,2,,,,,503.8404913410004,None,k,0.545659108000109,503.9409433970004,None,503.34024661700005,503.7572146450002,504.5070384260007,505.00738796099995,504.5070384260007,None,50,50,0,,,6,001,exponential,bryg,0.75-0.35,2021_May_18_1419,color_judgement_and_subjective_perception,2020.2.10,60.05344804914688,
1,0.75,testing,1000,1,,,,,,,,,0,0,0,0,5,1,21,1,,,,,505.59140648800076,None,f,0.5711179829995672,505.69147813900054,None,505.10729510300007,505.5083984230005,506.29142156500075,506.7915922840002,506.29142156500075,None,59,20,0,,,6,001,exponential,bryg,0.75-0.35,2021_May_18_1419,color_judgement_and_subjective_perception,2020.2.10,60.05344804914688,
0,0.75,testing,1000,1,,,,,,,,,0,0,0,0,5,2,22,0,,,,,507.39188126000045,None,d,0.4586024170002929,507.4919912109999,None,506.89171358300064,507.30856523500006,507.9752777450003,508.4753449230002,507.9752777450003,None,0,0,63,,,6,001,exponential,bryg,0.75-0.35,2021_May_18_1419,color_judgement_and_subjective_perception,2020.2.10,60.05344804914688,
3,0.75,testing,1000,1,,,,,,,,,0,0,0,0,5,3,23,3,,,,,509.0754187550001,None,j,0.479066098999283,509.1755480410002,None,508.5753437400008,508.9920871580007,509.6754013230002,510.1598435100004,509.6754013230002,None,0,74,0,,,6,001,exponential,bryg,0.75-0.35,2021_May_18_1419,color_judgement_and_subjective_perception,2020.2.10,60.05344804914688,
1,0.75,testing,1000,1,,,,,,,,,0,0,0,0,6,0,24,1,,,,,510.75992498400046,None,f,0.8188010920002853,510.8597803350003,None,510.2598264880007,510.6766581210004,511.70992293900053,512.2102343380002,511.70992293900053,None,63,21,0,,,6,001,exponential,bryg,0.75-0.35,2021_May_18_1419,color_judgement_and_subjective_perception,2020.2.10,60.05344804914688,
0,0.75,testing,1000,1,,,,,,,,,0,0,0,0,6,1,25,0,,,,,512.8103710230007,None,k,0.656403023999701,512.9102080510002,None,512.3101597049999,512.7269968600003,513.5934871899999,514.0937688020003,513.5934871899999,None,0,0,67,,,6,001,exponential,bryg,0.75-0.35,2021_May_18_1419,color_judgement_and_subjective_perception,2020.2.10,60.05344804914688,
2,0.75,testing,1000,1,,,,,,,,,0,0,0,0,6,2,26,2,,,,,514.6938306510001,None,d,0.4606998230001409,514.7939068630003,None,514.1936376630001,514.6105282520002,515.277991643,515.7780891490002,515.277991643,None,57,57,0,,,6,001,exponential,bryg,0.75-0.35,2021_May_18_1419,color_judgement_and_subjective_perception,2020.2.10,60.05344804914688,
3,0.75,testing,1000,1,,,,,,,,,0,0,0,0,6,3,27,3,,,,,516.3782088450007,None,k,0.5203991779999342,516.4781953790007,None,515.8780951200006,516.2948026210006,517.0281834030002,517.5285140800006,517.0281834030002,None,0,79,0,,,6,001,exponential,bryg,0.75-0.35,2021_May_18_1419,color_judgement_and_subjective_perception,2020.2.10,60.05344804914688,
0,0.75,testing,1000,1,,,,,,,,,0,0,0,0,7,0,28,0,,,,,518.1285185730003,None,d,0.6580199770005493,518.2285895760006,None,517.6285078390001,518.0452338490004,518.9118299239999,519.4119990859999,518.9118299239999,None,0,0,71,,,6,001,exponential,bryg,0.75-0.35,2021_May_18_1419,color_judgement_and_subjective_perception,2020.2.10,60.05344804914688,
2,0.75,testing,1000,1,,,,,,,,,0,0,0,0,7,1,29,2,,,,,520.0121882650001,None,f,0.7105346139996982,520.1120571490001,None,519.5118580400003,519.9288468680006,520.8461634470004,521.3464473740005,520.8461634470004,None,61,61,0,,,6,001,exponential,bryg,0.75-0.35,2021_May_18_1419,color_judgement_and_subjective_perception,2020.2.10,60.05344804914688,
3,0.75,testing,1000,1,,,,,,,,,0,0,0,0,7,2,30,3,,,,,521.946540119,None,k,0.5361940980001236,522.0463892940006,None,521.4464818840006,521.863139905,522.6131839,523.1134672140006,522.6131839,None,0,83,0,,,6,001,exponential,bryg,0.75-0.35,2021_May_18_1419,color_judgement_and_subjective_perception,2020.2.10,60.05344804914688,
1,0.75,testing,1000,1,,,,,,,,,0,0,0,0,7,3,31,1,,,,,523.7134684620005,None,f,0.42513080299977446,523.8134634320004,None,523.213393985,523.6301378750004,524.2634705090004,524.7637129950008,524.2634705090004,None,71,24,0,,,6,001,exponential,bryg,0.75-0.35,2021_May_18_1419,color_judgement_and_subjective_perception,2020.2.10,60.05344804914688,
2,0.75,testing,1000,1,,,,,,,,,0,0,0,0,8,0,32,2,,,,,525.348007904,None,j,0.5667021999997814,525.4478367700003,None,524.8635761190008,525.2645988280001,526.0312366070002,526.5313437120003,526.0312366070002,None,65,65,0,,,6,001,exponential,bryg,0.75-0.35,2021_May_18_1419,color_judgement_and_subjective_perception,2020.2.10,60.05344804914688,
0,0.75,testing,1000,1,,,,,,,,,0,0,0,0,8,1,33,0,,,,,527.1314706380008,None,d,0.711020269999608,527.2315165660002,None,526.6312338360003,527.0480983530006,527.9649422080001,528.465077713,527.9649422080001,None,0,0,75,,,6,001,exponential,bryg,0.75-0.35,2021_May_18_1419,color_judgement_and_subjective_perception,2020.2.10,60.05344804914688,
3,0.75,testing,1000,1,,,,,,,,,0,0,0,0,8,2,34,3,,,,,529.0651469080003,None,k,0.40937625900005514,529.1652705780007,None,528.5648954470007,528.9816762270002,529.5984670570006,530.0986275550003,529.5984670570006,None,0,84,0,,,6,001,exponential,bryg,0.75-0.35,2021_May_18_1419,color_judgement_and_subjective_perception,2020.2.10,60.05344804914688,
1,0.75,testing,1000,1,,,,,,,,,0,0,0,0,8,3,35,1,,,,,530.6830070660008,None,f,0.5917343689998233,530.7828847480005,None,530.1827490190008,530.5996527300003,531.3994689710007,531.8997710390004,531.3994689710007,None,68,23,0,,,6,001,exponential,bryg,0.75-0.35,2021_May_18_1419,color_judgement_and_subjective_perception,2020.2.10,60.05344804914688,
2,0.75,testing,1000,1,,,,,,,,,0,0,0,0,9,0,36,2,,,,,532.499827609,None,j,0.3026894109998466,532.5999058220004,None,531.9997684050004,532.4165262380002,532.9332040920008,533.4332623549999,532.9332040920008,None,62,62,0,,,6,001,exponential,bryg,0.75-0.35,2021_May_18_1419,color_judgement_and_subjective_perception,2020.2.10,60.05344804914688,
3,0.75,testing,1000,1,,,,,,,,,0,0,0,0,9,1,37,3,,,,,534.0335321420007,None,k,0.4169815519999247,534.1335617140003,None,533.5333837620001,533.9499014319999,534.5833347940006,535.0836574230007,534.5833347940006,None,0,80,0,,,6,001,exponential,bryg,0.75-0.35,2021_May_18_1419,color_judgement_and_subjective_perception,2020.2.10,60.05344804914688,
0,0.75,testing,1000,1,,,,,,,,,0,0,0,0,9,2,38,0,,,,,535.6677750600002,None,d,0.4547190920002322,535.767817291,None,535.1675858160006,535.5845762320005,536.2509455890004,536.7511569650005,536.2509455890004,None,0,0,71,,,6,001,exponential,bryg,0.75-0.35,2021_May_18_1419,color_judgement_and_subjective_perception,2020.2.10,60.05344804914688,
1,0.75,testing,1000,1,,,,,,,,,0,0,0,0,9,3,39,1,,,,,537.3514168890006,None,f,0.3469914709994555,537.451630429,None,536.8511383820005,537.2680395300004,537.8180832070002,538.318083532,537.8180832070002,None,63,21,0,,,6,001,exponential,bryg,0.75-0.35,2021_May_18_1419,color_judgement_and_subjective_perception,2020.2.10,60.05344804914688,
2,0.75,testing,1000,1,,,,,,,,,0,0,0,0,10,0,40,2,,,,,538.918234101,None,j,0.2843307929997536,539.0182571610003,None,538.4181542980004,538.83495864,539.3349680770007,539.8352076990004,539.3349680770007,None,59,59,0,,,6,001,exponential,bryg,0.75-0.35,2021_May_18_1419,color_judgement_and_subjective_perception,2020.2.10,60.05344804914688,
1,0.75,testing,1000,1,,,,,,,,,0,0,0,0,10,1,41,1,,,,,540.4193476560004,None,f,0.6473235050007133,540.5192982880008,None,539.9350078420002,540.3359971110003,541.1860231410001,541.6860998270004,541.1860231410001,None,60,20,0,,,6,001,exponential,bryg,0.75-0.35,2021_May_18_1419,color_judgement_and_subjective_perception,2020.2.10,60.05344804914688,
3,0.75,testing,1000,1,,,,,,,,,0,0,0,0,10,2,42,3,,,,,542.2861803710002,None,k,0.7483310420002454,542.3862800830002,None,541.786096072,542.2030405920004,543.1529171550001,543.6530598140007,543.1529171550001,None,0,74,0,,,6,001,exponential,bryg,0.75-0.35,2021_May_18_1419,color_judgement_and_subjective_perception,2020.2.10,60.05344804914688,
0,0.75,testing,1000,1,,,,,,,,,0,0,0,0,10,3,43,0,,,,,544.2530486290007,None,d,0.501256986000044,544.3533589870003,None,543.7530963990002,544.1699469069999,544.8865334740003,545.3709788770002,544.8865334740003,None,0,0,65,,,6,001,exponential,bryg,0.75-0.35,2021_May_18_1419,color_judgement_and_subjective_perception,2020.2.10,60.05344804914688,
1,0.75,testing,1000,1,,,,,,,,,0,0,0,0,11,0,44,1,,,,,545.9709865960003,None,f,0.4476071570006752,546.0710026180004,None,545.4708500440001,545.8876321090002,546.537530394,547.037889321,546.537530394,None,56,19,0,,,6,001,exponential,bryg,0.75-0.35,2021_May_18_1419,color_judgement_and_subjective_perception,2020.2.10,60.05344804914688,
3,0.75,testing,1000,1,,,,,,,,,0,0,0,0,11,1,45,3,,,,,547.6381138850002,None,k,0.46049545200003195,547.7380517940001,None,547.1378498000004,547.5546353310001,548.2212836680001,548.7213573480003,548.2212836680001,None,0,70,0,,,6,001,exponential,bryg,0.75-0.35,2021_May_18_1419,color_judgement_and_subjective_perception,2020.2.10,60.05344804914688,
0,0.75,testing,1000,1,,,,,,,,,0,0,0,0,11,2,46,0,,,,,549.3215530060006,None,d,0.4091506830000071,549.4214607260001,None,548.8214227810004,549.238180542,549.8547804899999,550.3393105200003,549.8547804899999,None,0,0,61,,,6,001,exponential,bryg,0.75-0.35,2021_May_18_1419,color_judgement_and_subjective_perception,2020.2.10,60.05344804914688,
2,0.75,testing,1000,1,,,,,,,,,0,0,0,0,11,3,47,2,,,,,550.939401349,None,j,0.4793846370002939,551.0392332540005,None,550.4390326390003,550.855892863,551.5391063380002,552.0394125020002,551.5391063380002,None,53,53,0,,,6,001,exponential,bryg,0.75-0.35,2021_May_18_1419,color_judgement_and_subjective_perception,2020.2.10,60.05344804914688,
0,0.75,testing,1000,1,,,,,,,,,0,0,0,0,12,0,48,0,,,,,552.6395774960001,None,d,0.47497371200006455,552.739626093,None,552.1394137140005,552.5563633640004,553.2395849640006,553.7396522530007,553.2395849640006,None,0,0,58,,,6,001,exponential,bryg,0.75-0.35,2021_May_18_1419,color_judgement_and_subjective_perception,2020.2.10,60.05344804914688,
1,0.75,testing,1000,1,,,,,,,,,0,0,0,0,12,1,49,1,,,,,554.339839962,None,k,0.47070043699932285,554.4398656600006,None,553.8395700970004,554.256346272,554.9397296100005,555.4241895160003,554.9397296100005,None,50,17,0,,,6,001,exponential,bryg,0.75-0.35,2021_May_18_1419,color_judgement_and_subjective_perception,2020.2.10,60.05344804914688,
2,0.75,testing,1000,1,,,,,,,,,0,0,0,0,12,2,50,2,,,,,556.024295145,None,k,0.49049828100032755,556.1240828380005,None,555.5240998170002,555.9408258090007,556.6407695770004,557.1410733520006,556.6407695770004,None,51,51,0,,,6,001,exponential,bryg,0.75-0.35,2021_May_18_1419,color_judgement_and_subjective_perception,2020.2.10,60.05344804914688,
3,0.75,testing,1000,1,,,,,,,,,0,0,0,0,12,3,51,3,,,,,557.7413399229999,None,k,0.5814240629997585,557.8411839270002,None,557.2409458040001,557.657904912,558.4412066940004,558.9413722280005,558.4412066940004,None,0,67,0,,,6,001,exponential,bryg,0.75-0.35,2021_May_18_1419,color_judgement_and_subjective_perception,2020.2.10,60.05344804914688,
2,0.75,testing,1000,1,,,,,,,,,0,0,0,0,13,0,52,2,,,,,559.5415201650003,None,j,0.5011800929996753,559.6414326090007,None,559.0412317580003,559.4580422920008,560.162790243,560.659082096,560.162790243,None,54,54,0,,,6,001,exponential,bryg,0.75-0.35,2021_May_18_1419,color_judgement_and_subjective_perception,2020.2.10,60.05344804914688,
3,0.75,testing,1000,1,,,,,,,,,0,0,0,0,13,1,53,3,,,,,561.2591508240002,None,f,0.43152294700030325,561.3590681810001,None,560.7590277060008,561.1758174270008,561.8090798150006,562.3093102160001,561.8090798150006,None,0,68,0,,,6,001,exponential,bryg,0.75-0.35,2021_May_18_1419,color_judgement_and_subjective_perception,2020.2.10,60.05344804914688,
1,0.75,testing,1000,1,,,,,,,,,0,0,0,0,13,2,54,1,,,,,562.9094830530003,None,f,0.6691052570004103,563.0095054010008,None,562.4093227330004,562.8260920960001,563.709387631,564.2097052019999,563.709387631,None,56,19,0,,,6,001,exponential,bryg,0.75-0.35,2021_May_18_1419,color_judgement_and_subjective_perception,2020.2.10,60.05344804914688,
0,0.75,testing,1000,1,,,,,,,,,0,0,0,0,13,3,55,0,,,,,564.8097408020003,None,d,0.4968975659994612,564.9097038580003,None,564.3095834190008,564.7262802969999,565.427214198,565.9273226170008,565.427214198,None,0,0,62,,,6,001,exponential,bryg,0.75-0.35,2021_May_18_1419,color_judgement_and_subjective_perception,2020.2.10,60.05344804914688,
1,0.75,testing,1000,1,,,,,,,,,0,0,0,0,14,0,56,1,,,,,566.5274650629999,None,f,0.48305632199935644,566.6275144330002,None,566.0272073180004,566.4441986780002,567.1274016020006,567.6277139080003,567.1274016020006,None,55,18,0,,,6,001,exponential,bryg,0.75-0.35,2021_May_18_1419,color_judgement_and_subjective_perception,2020.2.10,60.05344804914688,
0,0.75,testing,1000,1,,,,,,,,,0,0,0,0,14,1,57,0,,,,,568.2277640900002,None,d,0.4468152219997137,568.3277902790005,None,567.7276876820006,568.1443840970005,568.7942853290006,569.2945100870002,568.7942853290006,None,0,0,59,,,6,001,exponential,bryg,0.75-0.35,2021_May_18_1419,color_judgement_and_subjective_perception,2020.2.10,60.05344804914688,
3,0.75,testing,1000,1,,,,,,,,,0,0,0,0,14,2,58,3,,,,,569.8945980320004,None,k,0.44397555500017916,569.9945852130004,None,569.3943814439999,569.8113768250005,570.4621793010001,570.9621863360007,570.4621793010001,None,0,68,0,,,6,001,exponential,bryg,0.75-0.35,2021_May_18_1419,color_judgement_and_subjective_perception,2020.2.10,60.05344804914688,
2,0.75,testing,1000,1,,,,,,,,,0,0,0,0,14,3,59,2,,,,,571.5623068020004,None,j,0.4722561919998043,571.66236544,None,571.0620913110006,571.4789975900003,572.1622100660006,572.6626279940001,572.1622100660006,None,54,54,0,,,6,001,exponential,bryg,0.75-0.35,2021_May_18_1419,color_judgement_and_subjective_perception,2020.2.10,60.05344804914688,
2,0.75,testing,1000,1,,,,,,,,,0,0,0,0,15,0,60,2,,,,,573.2625885200005,None,j,0.38808391299971845,573.3625519180005,None,572.7625756840007,573.1791941910005,573.7790997310003,574.2793955679999,573.7790997310003,None,52,52,0,,,6,001,exponential,bryg,0.75-0.35,2021_May_18_1419,color_judgement_and_subjective_perception,2020.2.10,60.05344804914688,
1,0.75,testing,1000,1,,,,,,,,,0,0,0,0,15,1,61,1,,,,,574.8795767060001,None,d,0.6911074379995625,574.97948782,None,574.3793049040005,574.7961915870001,575.697173986,576.1971481600003,575.697173986,None,49,16,0,,,6,001,exponential,bryg,0.75-0.35,2021_May_18_1419,color_judgement_and_subjective_perception,2020.2.10,60.05344804914688,
3,0.75,testing,1000,1,,,,,,,,,0,0,0,0,15,2,62,3,,,,,576.7973488850002,None,k,0.5172162810004011,576.897325641,None,576.2971962850006,576.7140177780002,577.4472629580005,577.9477892370005,577.4472629580005,None,0,65,0,,,6,001,exponential,bryg,0.75-0.35,2021_May_18_1419,color_judgement_and_subjective_perception,2020.2.10,60.05344804914688,
0,0.75,testing,1000,1,,,,,,,,,0,0,0,0,15,3,63,0,,,,,578.547563137,None,f,0.4790938060004919,578.6475162490005,None,578.0473946230004,578.46416752,579.1474891100006,579.6478816250001,579.1474891100006,None,0,0,54,,,6,001,exponential,bryg,0.75-0.35,2021_May_18_1419,color_judgement_and_subjective_perception,2020.2.10,60.05344804914688,
1,0.75,testing,1000,1,,,,,,,,,0,0,0,0,16,0,64,1,,,,,580.2319578340002,None,j,0.5625702719999026,580.3320496430006,None,579.7476237280007,580.1558248890005,580.9151734400002,581.415282207,580.9151734400002,None,51,17,0,,,6,001,exponential,bryg,0.75-0.35,2021_May_18_1419,color_judgement_and_subjective_perception,2020.2.10,60.05344804914688,
0,0.75,testing,1000,1,,,,,,,,,0,0,0,0,16,1,65,0,,,,,582.0156949990005,None,f,0.7709566479998102,582.1156526560007,None,581.5153308920007,581.9322941240007,582.9156336470005,583.4157160820005,582.9156336470005,None,0,0,57,,,6,001,exponential,bryg,0.75-0.35,2021_May_18_1419,color_judgement_and_subjective_perception,2020.2.10,60.05344804914688,
3,0.75,testing,1000,1,,,,,,,,,0,0,0,0,16,2,66,3,,,,,584.0157529810003,None,j,0.47481163700012985,584.1157855010006,None,583.515644004,583.9324277410005,584.6157984910005,585.1160070810001,584.6157984910005,None,0,66,0,,,6,001,exponential,bryg,0.75-0.35,2021_May_18_1419,color_judgement_and_subjective_perception,2020.2.10,60.05344804914688,
2,0.75,testing,1000,1,,,,,,,,,0,0,0,0,16,3,67,2,,,,,585.700433862,None,j,0.6223403410003812,585.8002793630003,None,585.2002747639999,585.6170854700003,586.4502643160004,586.9503696310003,586.4502643160004,None,54,54,0,,,6,001,exponential,bryg,0.75-0.35,2021_May_18_1419,color_judgement_and_subjective_perception,2020.2.10,60.05344804914688,
3,0.75,testing,1000,1,,,,,,,,,0,0,0,0,17,0,68,3,,,,,587.5505362610002,None,k,0.5400179019998177,587.6505773880008,None,587.0503069550005,587.4673556790003,588.2173279560002,588.7174499760004,588.2173279560002,None,0,69,0,,,6,001,exponential,bryg,0.75-0.35,2021_May_18_1419,color_judgement_and_subjective_perception,2020.2.10,60.05344804914688,
1,0.75,testing,1000,1,,,,,,,,,0,0,0,0,17,1,69,1,,,,,589.3175141830006,None,f,0.6689806770000359,589.4176079790004,None,588.8173844339999,589.2342663590007,590.1176346870006,590.6023194160007,590.1176346870006,None,57,19,0,,,6,001,exponential,bryg,0.75-0.35,2021_May_18_1419,color_judgement_and_subjective_perception,2020.2.10,60.05344804914688,
0,0.75,testing,1000,1,,,,,,,,,0,0,0,0,17,2,70,0,,,,,591.201938448,None,d,0.2727271699995981,591.3018531010002,None,590.7020272790005,591.118598219,591.6018120000008,592.1021828749999,591.6018120000008,None,0,0,63,,,6,001,exponential,bryg,0.75-0.35,2021_May_18_1419,color_judgement_and_subjective_perception,2020.2.10,60.05344804914688,
2,0.75,testing,1000,1,,,,,,,,,0,0,0,0,17,3,71,2,,,,,592.7023445210007,None,j,0.4123453950005569,592.8022708140006,None,592.2019584380005,592.6188846080004,593.235517479,593.7357507659999,593.235517479,None,55,55,0,,,6,001,exponential,bryg,0.75-0.35,2021_May_18_1419,color_judgement_and_subjective_perception,2020.2.10,60.05344804914688,
3,0.75,testing,1000,1,,,,,,,,,0,0,0,0,18,0,72,3,,,,,594.3357909280003,None,k,0.5308933780006555,594.4357280880004,None,593.8356270170007,594.2523704680007,594.985775786,595.4701306720008,594.985775786,None,0,70,0,,,6,001,exponential,bryg,0.75-0.35,2021_May_18_1419,color_judgement_and_subjective_perception,2020.2.10,60.05344804914688,
0,0.75,testing,1000,1,,,,,,,,,0,0,0,0,18,1,73,0,,,,,596.0701374150003,None,d,0.46844003299975157,596.1701713790007,None,595.5699946590003,595.986808824,596.6701043230005,597.1703630290003,596.6701043230005,None,0,0,61,,,6,001,exponential,bryg,0.75-0.35,2021_May_18_1419,color_judgement_and_subjective_perception,2020.2.10,60.05344804914688,
2,0.75,testing,1000,1,,,,,,,,,0,0,0,0,18,2,74,2,,,,,597.7705623510001,None,k,0.43191896000007546,597.870639963,None,597.2702994930005,597.6872952350004,598.3202548930003,598.8206798070005,598.3202548930003,None,51,51,0,,,6,001,exponential,bryg,0.75-0.35,2021_May_18_1419,color_judgement_and_subjective_perception,2020.2.10,60.05344804914688,
1,0.75,testing,1000,1,,,,,,,,,0,0,0,0,18,3,75,1,,,,,599.4206817980003,None,f,0.5420297160007976,599.5205591740005,None,598.9205217920007,599.3374264040003,600.0873672180005,600.5718191550004,600.0873672180005,None,56,19,0,,,6,001,exponential,bryg,0.75-0.35,2021_May_18_1419,color_judgement_and_subjective_perception,2020.2.10,60.05344804914688,
2,0.75,testing,1000,1,,,,,,,,,0,0,0,0,19,0,76,2,,,,,601.1716913720002,None,j,0.5348186310002347,601.2717862640002,None,600.6716943790007,601.0882863310007,601.8382628449999,602.3385868580008,601.8382628449999,None,52,52,0,,,6,001,exponential,bryg,0.75-0.35,2021_May_18_1419,color_judgement_and_subjective_perception,2020.2.10,60.05344804914688,
0,0.75,testing,1000,1,,,,,,,,,0,0,0,0,19,1,77,0,,,,,602.9388436540003,None,d,0.5036895849998473,603.0388774460007,None,602.4385037800002,602.8554287850002,603.5719243090007,604.0720843940007,603.5719243090007,None,0,0,60,,,6,001,exponential,bryg,0.75-0.35,2021_May_18_1419,color_judgement_and_subjective_perception,2020.2.10,60.05344804914688,
3,0.75,testing,1000,1,,,,,,,,,0,0,0,0,19,2,78,3,,,,,604.6720257249999,None,k,0.7220011179997528,604.7724707140005,None,604.1721324790005,604.5887113280005,605.5231350800004,606.0231032460006,605.5231350800004,None,0,65,0,,,6,001,exponential,bryg,0.75-0.35,2021_May_18_1419,color_judgement_and_subjective_perception,2020.2.10,60.05344804914688,
1,0.75,testing,1000,1,,,,,,,,,0,0,0,0,19,3,79,1,,,,,606.6233046690004,None,f,0.5152998160001516,606.723332996,None,606.1231398509999,606.5401584320007,607.2567638110004,607.7570026780004,607.2567638110004,None,53,18,0,,,6,001,exponential,bryg,0.75-0.35,2021_May_18_1419,color_judgement_and_subjective_perception,2020.2.10,60.05344804914688,
0,0.75,testing,1000,1,,,,,,,,,0,0,0,0,20,0,80,0,,,,,608.357245616,None,d,0.5095445719998679,608.4570633550002,None,607.8569645309999,608.2736301230007,608.9903272750007,609.4904547840006,608.9903272750007,None,0,0,56,,,6,001,exponential,bryg,0.75-0.35,2021_May_18_1419,color_judgement_and_subjective_perception,2020.2.10,60.05344804914688,
3,0.75,testing,1000,1,,,,,,,,,0,0,0,0,20,1,81,3,,,,,610.09057871,None,k,0.6876829619995988,610.1749287410003,None,609.5904404510002,610.0073630240004,610.8915669020007,611.3916543360001,610.8915669020007,None,0,61,0,,,6,001,exponential,bryg,0.75-0.35,2021_May_18_1419,color_judgement_and_subjective_perception,2020.2.10,60.05344804914688,
1,0.75,testing,1000,1,,,,,,,,,0,0,0,0,20,2,82,1,,,,,611.9916517820002,None,d,0.7149015439999857,612.0917103440006,None,611.491457182,611.9084469360005,612.8252147480007,613.3252655470005,612.8252147480007,None,49,16,0,,,6,001,exponential,bryg,0.75-0.35,2021_May_18_1419,color_judgement_and_subjective_perception,2020.2.10,60.05344804914688,
2,0.75,testing,1000,1,,,,,,,,,0,0,0,0,20,3,83,2,,,,,613.9253099400003,None,j,0.533120007999969,614.0254898290004,None,613.4252347380007,613.8419905990004,614.5753328440005,615.0756585839999,614.5753328440005,None,46,46,0,,,6,001,exponential,bryg,0.75-0.35,2021_May_18_1419,color_judgement_and_subjective_perception,2020.2.10,60.05344804914688,
2,0.75,testing,1000,1,,,,,,,,,0,0,0,0,21,0,84,2,,,,,615.6597947600003,None,j,0.6227819200003069,615.7598336270003,None,615.1683670680004,615.576571564,616.4097708680001,616.9099276610004,616.4097708680001,None,44,44,0,,,6,001,exponential,bryg,0.75-0.35,2021_May_18_1419,color_judgement_and_subjective_perception,2020.2.10,60.05344804914688,
3,0.75,testing,1000,1,,,,,,,,,0,0,0,0,21,1,85,3,,,,,617.5101572590002,None,k,0.5405080350001299,617.6100893640005,None,617.009938964,617.4267237330005,618.1767540430001,618.6769729710004,618.1767540430001,None,0,58,0,,,6,001,exponential,bryg,0.75-0.35,2021_May_18_1419,color_judgement_and_subjective_perception,2020.2.10,60.05344804914688,
0,0.75,testing,1000,1,,,,,,,,,0,0,0,0,21,2,86,0,,,,,619.2767659340007,None,d,0.44559213100001216,619.3768720690005,None,618.7768637380004,619.1932134420003,619.8436228210003,620.3279794720002,619.8436228210003,None,0,0,51,,,6,001,exponential,bryg,0.75-0.35,2021_May_18_1419,color_judgement_and_subjective_perception,2020.2.10,60.05344804914688,
1,0.75,testing,1000,1,,,,,,,,,0,0,0,0,21,3,87,1,,,,,620.928009964,None,f,0.626594022000063,621.0280384360003,None,620.4280067650006,620.8446363510002,621.6779850460007,622.178207082,621.6779850460007,None,47,16,0,,,6,001,exponential,bryg,0.75-0.35,2021_May_18_1419,color_judgement_and_subjective_perception,2020.2.10,60.05344804914688,
1,0.75,testing,1000,1,,,,,,,,,0,0,0,0,22,0,88,1,,,,,622.7784989450001,None,f,0.41610158499952377,622.878500326,None,622.2781729490007,622.695150134,623.3117261880006,623.811938713,623.3117261880006,None,47,16,0,,,6,001,exponential,bryg,0.75-0.35,2021_May_18_1419,color_judgement_and_subjective_perception,2020.2.10,60.05344804914688,
2,0.75,testing,1000,1,,,,,,,,,0,0,0,0,22,1,89,2,,,,,624.4119264310002,None,j,0.8226047890002519,624.5119884210008,None,623.9118533999999,624.328648144,625.3628713710004,625.8630513570006,625.3628713710004,None,38,38,0,,,6,001,exponential,bryg,0.75-0.35,2021_May_18_1419,color_judgement_and_subjective_perception,2020.2.10,60.05344804914688,
0,0.75,testing,1000,1,,,,,,,,,0,0,0,0,22,2,90,0,,,,,626.463130911,None,d,0.4352923139995255,626.5632689940003,None,625.9629386070001,626.3796700100002,627.0296968830007,627.5300033140002,627.0296968830007,None,0,0,46,,,6,001,exponential,bryg,0.75-0.35,2021_May_18_1419,color_judgement_and_subjective_perception,2020.2.10,60.05344804914688,
3,0.75,testing,1000,1,,,,,,,,,0,0,0,0,22,3,91,3,,,,,628.1302115770004,None,f,0.4324497710003925,628.2301308470005,None,627.6299486840007,628.0466886650001,628.6799627959999,629.1801062650002,628.6799627959999,None,0,51,0,,,6,001,exponential,bryg,0.75-0.35,2021_May_18_1419,color_judgement_and_subjective_perception,2020.2.10,60.05344804914688,
0,0.75,testing,1000,1,,,,,,,,,0,0,0,0,23,0,92,0,,,,,629.7803904270004,None,j,0.5822715390004305,629.8803235880005,None,629.2800095380007,629.6969549920004,630.4811123080008,630.9813439630007,630.4811123080008,None,0,0,45,,,6,001,exponential,bryg,0.75-0.35,2021_May_18_1419,color_judgement_and_subjective_perception,2020.2.10,60.05344804914688,
2,0.75,testing,1000,1,,,,,,,,,0,0,0,0,23,1,93,2,,,,,631.581376049,None,d,0.27705431999947905,631.681481476,None,631.0812921720008,631.4980004530007,631.9811657140008,632.4815403020002,631.9811657140008,None,37,37,0,,,6,001,exponential,bryg,0.75-0.35,2021_May_18_1419,color_judgement_and_subjective_perception,2020.2.10,60.05344804914688,
1,0.75,testing,1000,1,,,,,,,,,0,0,0,0,23,2,94,1,,,,,633.0815744690008,None,f,0.4488714199997048,633.1817202270004,None,632.581591143,632.998347277,633.648070532,634.1483817670005,633.648070532,None,46,15,0,,,6,001,exponential,bryg,0.75-0.35,2021_May_18_1419,color_judgement_and_subjective_perception,2020.2.10,60.05344804914688,
3,0.75,testing,1000,1,,,,,,,,,0,0,0,0,23,3,95,3,,,,,634.7486159630007,None,k,0.48596445899966056,634.848611294,None,634.2483247990003,634.6651356660004,635.3660047010007,635.8661582700006,635.3660047010007,None,0,56,0,,,6,001,exponential,bryg,0.75-0.35,2021_May_18_1419,color_judgement_and_subjective_perception,2020.2.10,60.05344804914688,
3,0.75,testing,1000,1,,,,,,,,,0,0,0,0,,,,,0,0,0,3,666.159117272,None,None,-1,666.2589140330001,None,665.6588459590002,666.0757612380003,667.1777906240004,667.6762048340006,667.1777906240004,None,0,56,0,635.9784014800007,None,6,001,exponential,bryg,0.75-0.35,2021_May_18_1419,color_judgement_and_subjective_perception,2020.2.10,60.05344804914688,
1,0.75,testing,1000,1,,,,,,,,,0,0,0,0,,,,,0,1,1,1,668.2760932600004,None,f,0.6786187469997458,668.375990941,None,667.77585825,668.1927277340001,669.0777546670006,669.5763101210005,669.0777546670006,None,48,16,0,None,None,6,001,exponential,bryg,0.75-0.35,2021_May_18_1419,color_judgement_and_subjective_perception,2020.2.10,60.05344804914688,
2,0.75,testing,1000,1,,,,,,,,,0,0,0,0,,,,,0,2,2,2,670.1752486380001,None,k,0.610019192999971,670.2605999990001,None,669.6762443920006,670.0929464460005,670.8954626640007,671.3940304500002,670.8954626640007,None,43,43,0,None,None,6,001,exponential,bryg,0.75-0.35,2021_May_18_1419,color_judgement_and_subjective_perception,2020.2.10,60.05344804914688,
3,0.75,testing,1000,1,,,,,,,,,0,0,0,0,,,,,0,3,3,3,671.9940786140005,None,k,0.5443456619996141,672.0941366160005,None,671.4937056010003,671.9107091160004,672.6623514950006,673.1609407240003,672.6623514950006,None,0,60,0,None,None,6,001,exponential,bryg,0.75-0.35,2021_May_18_1419,color_judgement_and_subjective_perception,2020.2.10,60.05344804914688,
3,0.75,testing,1000,1,,,,,,,,,0,0,0,0,,,,,1,0,4,3,673.7609846560008,None,None,-1,673.8610177529999,None,673.2607854190001,673.6776674790008,674.4381544440002,674.8778174200006,674.4381544440002,None,0,62,0,None,None,6,001,exponential,bryg,0.75-0.35,2021_May_18_1419,color_judgement_and_subjective_perception,2020.2.10,60.05344804914688,
3,0.75,testing,1000,1,,,,,,,,,0,0,0,0,,,,,1,1,5,3,675.4621471500004,None,k,0.3164823440001783,675.5621039370008,None,674.9776800899999,675.3787947820001,675.8975889150006,676.3954998380004,675.8975889150006,None,0,64,0,None,None,6,001,exponential,bryg,0.75-0.35,2021_May_18_1419,color_judgement_and_subjective_perception,2020.2.10,60.05344804914688,
3,0.75,testing,1000,1,,,,,,,,,0,0,0,0,,,,,1,2,6,3,676.9955976850006,None,k,0.35883029399974475,677.0957894230005,None,676.4953927420001,676.9123158780003,677.4789411649999,677.9792225410001,677.4789411649999,None,0,66,0,None,None,6,001,exponential,bryg,0.75-0.35,2021_May_18_1419,color_judgement_and_subjective_perception,2020.2.10,60.05344804914688,
2,0.75,testing,1000,1,,,,,,,,,0,0,0,0,,,,,1,3,7,2,678.5791795069999,None,j,0.3833654599993679,678.6791499090004,None,678.079073461,678.495802632,679.0958971959999,679.5959245650001,679.0958971959999,None,49,49,0,None,None,6,001,exponential,bryg,0.75-0.35,2021_May_18_1419,color_judgement_and_subjective_perception,2020.2.10,60.05344804914688,
3,0.75,testing,1000,1,,,,,,,,,0,0,0,0,,,,,2,0,8,3,680.187469554,None,k,0.47018478000063624,680.2804297460007,None,679.6958770250003,680.1128952890003,680.780096593,681.2805050160005,680.780096593,None,0,67,0,None,None,6,001,exponential,bryg,0.75-0.35,2021_May_18_1419,color_judgement_and_subjective_perception,2020.2.10,60.05344804914688,
3,0.75,testing,1000,1,,,,,,,,,0,0,0,0,,,,,2,1,9,3,681.8804767219999,None,k,0.45009207099974446,681.9805611740003,None,681.3802730840007,681.7972452100003,682.4477607440003,682.947344483,682.4477607440003,None,0,65,0,None,None,6,001,exponential,bryg,0.75-0.35,2021_May_18_1419,color_judgement_and_subjective_perception,2020.2.10,60.05344804914688,
1,0.75,testing,1000,1,,,,,,,,,0,0,0,0,,,,,2,2,10,1,683.5473687460008,None,f,0.4872392489996855,683.6473456610001,None,683.0473206209999,683.4640888280001,684.1640235370005,684.6642723370005,684.1640235370005,None,50,17,0,None,None,6,001,exponential,bryg,0.75-0.35,2021_May_18_1419,color_judgement_and_subjective_perception,2020.2.10,60.05344804914688,
2,0.75,testing,1000,1,,,,,,,,,0,0,0,0,,,,,2,3,11,2,685.2486049990002,None,j,0.6899049069998,685.3486946100002,None,684.7640216440004,685.1799172640003,686.0651130599999,686.5653643149999,686.0651130599999,None,46,46,0,None,None,6,001,exponential,bryg,0.75-0.35,2021_May_18_1419,color_judgement_and_subjective_perception,2020.2.10,60.05344804914688,
0,0.75,testing,1000,1,,,,,,,,,0,0,0,0,,,,,3,0,12,0,687.1656132060007,None,d,0.4290414739998596,687.2655085750002,None,686.6651569820006,687.0822681400005,687.7155116150007,688.2157439570001,687.7155116150007,None,0,0,52,None,None,6,001,exponential,bryg,0.75-0.35,2021_May_18_1419,color_judgement_and_subjective_perception,2020.2.10,60.05344804914688,
3,0.75,testing,1000,1,,,,,,,,,0,0,0,0,,,,,3,1,13,3,688.8157674140002,None,j,0.33886941600030696,688.9157516290006,None,688.3156045180003,688.7324027950008,689.2840854790002,689.7824851550004,689.2840854790002,None,0,60,0,None,None,6,001,exponential,bryg,0.75-0.35,2021_May_18_1419,color_judgement_and_subjective_perception,2020.2.10,60.05344804914688,
1,0.75,testing,1000,1,,,,,,,,,0,0,0,0,,,,,3,2,14,1,690.3668125930008,None,f,0.5477750780000861,690.4668110210005,None,689.8823559420007,690.283534833,691.035115875,691.5336643549999,691.035115875,None,47,16,0,None,None,6,001,exponential,bryg,0.75-0.35,2021_May_18_1419,color_judgement_and_subjective_perception,2020.2.10,60.05344804914688,
0,0.75,testing,1000,1,,,,,,,,,0,0,0,0,,,,,3,3,15,0,692.1338196550005,None,d,0.47672134100048424,692.2338497620003,None,691.6335650130004,692.050414753,692.7338224570003,693.2338762990003,692.7338224570003,None,0,0,50,None,None,6,001,exponential,bryg,0.75-0.35,2021_May_18_1419,color_judgement_and_subjective_perception,2020.2.10,60.05344804914688,
1,0.75,testing,1000,1,,,,,,,,,0,0,0,0,,,,,4,0,16,1,693.8341072960002,None,f,0.6166470089992799,693.9339141540004,None,693.333620032,693.7505854700003,694.5677696950006,695.067607383,694.5677696950006,None,44,15,0,None,None,6,001,exponential,bryg,0.75-0.35,2021_May_18_1419,color_judgement_and_subjective_perception,2020.2.10,60.05344804914688,
2,0.75,testing,1000,1,,,,,,,,,0,0,0,0,,,,,4,1,17,2,695.651790893,None,j,0.5587408249994041,695.751856293,None,695.1672960470005,695.5685891970006,696.3349936130007,696.8352474110006,696.3349936130007,None,43,43,0,None,None,6,001,exponential,bryg,0.75-0.35,2021_May_18_1419,color_judgement_and_subjective_perception,2020.2.10,60.05344804914688,
3,0.75,testing,1000,1,,,,,,,,,0,0,0,0,,,,,4,2,18,3,697.4355739930006,None,k,0.4950753880002594,697.5355358020006,None,696.9349964530002,697.3519326420001,698.0520840859999,698.5522312000003,698.0520840859999,None,0,58,0,None,None,6,001,exponential,bryg,0.75-0.35,2021_May_18_1419,color_judgement_and_subjective_perception,2020.2.10,60.05344804914688,
0,0.75,testing,1000,1,,,,,,,,,0,0,0,0,,,,,4,3,19,0,699.1523617050007,None,d,0.6103200580000703,699.2522832690001,None,698.6520636580008,699.0689726330002,699.8856497770003,700.3700817710005,699.8856497770003,None,0,0,45,None,None,6,001,exponential,bryg,0.75-0.35,2021_May_18_1419,color_judgement_and_subjective_perception,2020.2.10,60.05344804914688,
1,0.75,testing,1000,1,,,,,,,,,0,0,0,0,,,,,5,0,20,1,700.9701147660007,None,f,0.792548901000373,701.0700346090007,None,700.4697513670008,700.8867498930003,701.8866849740007,702.3869937490008,701.8866849740007,None,39,13,0,None,None,6,001,exponential,bryg,0.75-0.35,2021_May_18_1419,color_judgement_and_subjective_perception,2020.2.10,60.05344804914688,
2,0.75,testing,1000,1,,,,,,,,,0,0,0,0,,,,,5,1,21,2,702.9871229300006,None,j,0.47939620899978763,703.0872201270004,None,702.4868163930005,702.9038460770007,703.5871099240003,704.0872235910001,703.5871099240003,None,38,38,0,None,None,6,001,exponential,bryg,0.75-0.35,2021_May_18_1419,color_judgement_and_subjective_perception,2020.2.10,60.05344804914688,
1,0.75,testing,1000,1,,,,,,,,,0,0,0,0,,,,,5,2,22,1,704.687172897,None,j,0.3711974210000335,704.7874091880003,None,704.1869602270008,704.6040091069999,705.1877660690006,705.6716605830006,705.1877660690006,None,36,12,0,None,None,6,001,exponential,bryg,0.75-0.35,2021_May_18_1419,color_judgement_and_subjective_perception,2020.2.10,60.05344804914688,
3,0.75,testing,1000,1,,,,,,,,,0,0,0,0,,,,,5,3,23,3,706.2717241830005,None,k,0.5387752759997966,706.371812937,None,705.7715164520005,706.1883320450006,706.9398115240001,707.4386414440005,706.9398115240001,None,0,56,0,None,None,6,001,exponential,bryg,0.75-0.35,2021_May_18_1419,color_judgement_and_subjective_perception,2020.2.10,60.05344804914688,
1,0.75,testing,1000,1,,,,,,,,,0,0,0,0,,,,,6,0,24,1,708.038721764,None,f,0.46780327899978147,708.1387979130004,None,707.5384934510002,707.9553720419999,708.6386325070007,709.1388129750003,708.6386325070007,None,37,12,0,None,None,6,001,exponential,bryg,0.75-0.35,2021_May_18_1419,color_judgement_and_subjective_perception,2020.2.10,60.05344804914688,
1,0.75,testing,1000,1,,,,,,,,,0,0,0,0,,,,,6,1,25,1,709.7389388780002,None,f,0.5036336429993753,709.838953986,None,709.2385418150006,709.6555347430003,710.3731508230003,710.8735277430005,710.3731508230003,None,35,12,0,None,None,6,001,exponential,bryg,0.75-0.35,2021_May_18_1419,color_judgement_and_subjective_perception,2020.2.10,60.05344804914688,
3,0.75,testing,1000,1,,,,,,,,,0,0,0,0,,,,,6,2,26,3,711.4733700410006,None,k,0.6491454460001478,711.573435452,None,710.9730492369999,711.3899132209999,712.24019064,712.7403182910002,712.24019064,None,0,52,0,None,None,6,001,exponential,bryg,0.75-0.35,2021_May_18_1419,color_judgement_and_subjective_perception,2020.2.10,60.05344804914688,
1,0.75,testing,1000,1,,,,,,,,,0,0,0,0,,,,,6,3,27,1,713.3403599500007,None,f,0.646161181000025,713.4404561420006,None,712.840204395,713.2568743390002,714.1068722960008,714.6071506130002,714.1068722960008,None,32,11,0,None,None,6,001,exponential,bryg,0.75-0.35,2021_May_18_1419,color_judgement_and_subjective_perception,2020.2.10,60.05344804914688,
2,0.75,testing,1000,1,,,,,,,,,0,0,0,0,,,,,7,0,28,2,715.1985113990004,None,j,0.3552183679994414,715.2914046340002,None,714.707003728,715.1239318540001,715.6746058680001,716.174677043,715.6746058680001,None,32,32,0,None,None,6,001,exponential,bryg,0.75-0.35,2021_May_18_1419,color_judgement_and_subjective_perception,2020.2.10,60.05344804914688,
2,0.75,testing,1000,1,,,,,,,,,0,0,0,0,,,,,7,1,29,2,716.7748981570003,None,j,0.6915456719998474,716.875044634,None,716.2745768730001,716.6915550800004,717.5915774990008,718.0918358610006,717.5915774990008,None,30,30,0,None,None,6,001,exponential,bryg,0.75-0.35,2021_May_18_1419,color_judgement_and_subjective_perception,2020.2.10,60.05344804914688,
2,0.75,testing,1000,1,,,,,,,,,0,0,0,0,,,,,7,2,30,2,718.6918741700001,None,j,0.36672245299996575,718.7918546830006,None,718.1917013860002,718.6085017330006,719.1757805780007,719.6754333940007,719.1757805780007,None,28,28,0,None,None,6,001,exponential,bryg,0.75-0.35,2021_May_18_1419,color_judgement_and_subjective_perception,2020.2.10,60.05344804914688,
3,0.75,testing,1000,1,,,,,,,,,0,0,0,0,,,,,7,3,31,3,720.2597806050007,None,k,0.5109054579997974,720.3595952980004,None,719.7751294710006,720.1909241960002,720.8928994050002,721.3931052730004,720.8928994050002,None,0,46,0,None,None,6,001,exponential,bryg,0.75-0.35,2021_May_18_1419,color_judgement_and_subjective_perception,2020.2.10,60.05344804914688,
3,0.75,testing,1000,1,,,,,,,,,0,0,0,0,,,,,8,0,32,3,721.9932314060006,None,k,0.4493803740006115,722.0932210520004,None,721.4928788480001,721.9098324440001,722.5600044560006,723.0602078030006,722.5600044560006,None,0,44,0,None,None,6,001,exponential,bryg,0.75-0.35,2021_May_18_1419,color_judgement_and_subjective_perception,2020.2.10,60.05344804914688,
2,0.75,testing,1000,1,,,,,,,,,0,0,0,0,,,,,8,1,33,2,723.6601405300007,None,j,0.4944328729998233,723.7600734780008,None,723.1599489130003,723.5769075770004,724.2768161780004,724.7771111460006,724.2768161780004,None,24,24,0,None,None,6,001,exponential,bryg,0.75-0.35,2021_May_18_1419,color_judgement_and_subjective_perception,2020.2.10,60.05344804914688,
2,0.75,testing,1000,1,,,,,,,,,0,0,0,0,,,,,8,2,34,2,725.3612501739999,None,j,0.46526578000066365,725.4612883460004,None,724.8768612440008,725.2779409800005,725.9445582730004,726.4446945380005,725.9445582730004,None,22,22,0,None,None,6,001,exponential,bryg,0.75-0.35,2021_May_18_1419,color_judgement_and_subjective_perception,2020.2.10,60.05344804914688,
0,0.75,testing,1000,1,,,,,,,,,0,0,0,0,,,,,8,3,35,0,727.0446170620007,None,j,0.2938310170002296,727.1448786320007,None,726.544410038,726.961208662,727.4631259930002,727.9617228510006,727.4631259930002,None,0,0,30,None,None,6,001,exponential,bryg,0.75-0.35,2021_May_18_1419,color_judgement_and_subjective_perception,2020.2.10,60.05344804914688,
3,0.75,testing,1000,1,,,,,,,,,0,0,0,0,,,,,9,0,36,3,728.5618050520006,None,k,0.6168295449997458,728.6616899569999,None,728.0615854110001,728.4783778580004,729.3134441080001,729.8120583440004,729.3134441080001,None,0,41,0,None,None,6,001,exponential,bryg,0.75-0.35,2021_May_18_1419,color_judgement_and_subjective_perception,2020.2.10,60.05344804914688,
3,0.75,testing,1000,1,,,,,,,,,0,0,0,0,,,,,9,1,37,3,730.3962745600002,None,j,0.398325252000177,730.4963021010008,None,729.9116612550006,730.3127337640008,730.914757257,731.4129704410007,730.914757257,None,0,39,0,None,None,6,001,exponential,bryg,0.75-0.35,2021_May_18_1419,color_judgement_and_subjective_perception,2020.2.10,60.05344804914688,
0,0.75,testing,1000,1,,,,,,,,,0,0,0,0,,,,,9,2,38,0,732.0131137790004,None,d,0.6535296049996759,732.1130636880007,None,731.5127169750003,731.9297733930007,732.7983197410003,733.2966689950008,732.7983197410003,None,0,0,32,None,None,6,001,exponential,bryg,0.75-0.35,2021_May_18_1419,color_judgement_and_subjective_perception,2020.2.10,60.05344804914688,
0,0.75,testing,1000,1,,,,,,,,,0,0,0,0,,,,,9,3,39,0,733.8968653700003,None,d,0.5379933220001476,733.9966510620006,None,733.3964841659999,733.813418363,734.5633250800001,735.0635473680004,734.5633250800001,None,0,0,34,None,None,6,001,exponential,bryg,0.75-0.35,2021_May_18_1419,color_judgement_and_subjective_perception,2020.2.10,60.05344804914688,
0,0.75,testing,1000,1,,,,,,,,,0,0,0,0,,,,,10,0,40,0,735.647864609,None,d,0.6029066410001178,735.747702867,None,735.1633308660003,735.5645102550006,736.3810776830005,736.8812434600004,736.3810776830005,None,0,0,32,None,None,6,001,exponential,bryg,0.75-0.35,2021_May_18_1419,color_judgement_and_subjective_perception,2020.2.10,60.05344804914688,
1,0.75,testing,1000,1,,,,,,,,,0,0,0,0,,,,,10,1,41,1,737.4815191800008,None,d,0.7690467109996462,737.5815410770001,None,736.9813405600007,737.3980121720006,738.3829448470005,738.8816797480004,738.3829448470005,None,23,8,0,None,None,6,001,exponential,bryg,0.75-0.35,2021_May_18_1419,color_judgement_and_subjective_perception,2020.2.10,60.05344804914688,
2,0.75,testing,1000,1,,,,,,,,,0,0,0,0,,,,,10,2,42,2,739.4817663090007,None,f,0.4728398950001065,739.5817596590005,None,738.9815029600004,739.3983584610005,740.0815922700003,740.5659359000001,740.0815922700003,None,21,21,0,None,None,6,001,exponential,bryg,0.75-0.35,2021_May_18_1419,color_judgement_and_subjective_perception,2020.2.10,60.05344804914688,
3,0.75,testing,1000,1,,,,,,,,,0,0,0,0,,,,,10,3,43,3,741.1660671590007,None,k,0.516494643000442,741.2661281970004,None,740.6659403850008,741.0828401230001,741.8016773640002,742.2997040390001,741.8016773640002,None,0,42,0,None,None,6,001,exponential,bryg,0.75-0.35,2021_May_18_1419,color_judgement_and_subjective_perception,2020.2.10,60.05344804914688,
3,0.75,testing,1000,1,,,,,,,,,0,0,0,0,,,,,11,0,44,3,742.8997544500007,None,k,0.5507827070005078,742.999894523,None,742.3994744260008,742.8163410320003,743.5828653620001,744.0830879380001,743.5828653620001,None,0,42,0,None,None,6,001,exponential,bryg,0.75-0.35,2021_May_18_1419,color_judgement_and_subjective_perception,2020.2.10,60.05344804914688,
3,0.75,testing,1000,1,,,,,,,,,0,0,0,0,,,,,11,1,45,3,744.6832655650005,None,k,0.4472141300002477,744.7833875270007,None,744.1828403670006,744.5999643270006,745.2507951470006,745.7507670670002,745.2507951470006,None,0,42,0,None,None,6,001,exponential,bryg,0.75-0.35,2021_May_18_1419,color_judgement_and_subjective_perception,2020.2.10,60.05344804914688,
1,0.75,testing,1000,1,,,,,,,,,0,0,0,0,,,,,11,2,46,1,746.351120759,None,f,0.6354932680005732,746.4511286820007,None,745.8506670960005,746.267811828,747.117671946,747.6180339090006,747.117671946,None,27,9,0,None,None,6,001,exponential,bryg,0.75-0.35,2021_May_18_1419,color_judgement_and_subjective_perception,2020.2.10,60.05344804914688,
1,0.75,testing,1000,1,,,,,,,,,0,0,0,0,,,,,11,3,47,1,748.2181733269999,None,f,0.32834146300046996,748.3182589759999,None,747.7179284160002,748.1347056980003,748.667892763,749.168156615,748.667892763,None,27,9,0,None,None,6,001,exponential,bryg,0.75-0.35,2021_May_18_1419,color_judgement_and_subjective_perception,2020.2.10,60.05344804914688,
2,0.75,testing,1000,1,,,,,,,,,0,0,0,0,,,,,12,0,48,2,749.7682600779999,None,f,0.6263649719994646,749.8682453609999,None,749.2679378040002,749.6848498310001,750.5206359310005,751.0192825530003,750.5206359310005,None,22,22,0,None,None,6,001,exponential,bryg,0.75-0.35,2021_May_18_1419,color_judgement_and_subjective_perception,2020.2.10,60.05344804914688,
1,0.75,testing,1000,1,,,,,,,,,0,0,0,0,,,,,12,1,49,1,751.6194446640002,None,j,0.28709913000056986,751.7194859609999,None,751.1191776390006,751.5359704680004,752.0358673000001,752.5362615690001,752.0358673000001,None,26,9,0,None,None,6,001,exponential,bryg,0.75-0.35,2021_May_18_1419,color_judgement_and_subjective_perception,2020.2.10,60.05344804914688,
2,0.75,testing,1000,1,,,,,,,,,0,0,0,0,,,,,12,2,50,2,753.136443849,None,k,0.3381570389992703,753.236442421,None,752.636112618,753.0530472140008,753.6027780000004,754.1030399650008,753.6027780000004,None,25,25,0,None,None,6,001,exponential,bryg,0.75-0.35,2021_May_18_1419,color_judgement_and_subjective_perception,2020.2.10,60.05344804914688,
1,0.75,testing,1000,1,,,,,,,,,0,0,0,0,,,,,12,3,51,1,754.7032564900001,None,d,0.2994295830003466,754.8031513360002,None,754.2029083060006,754.619753645,755.1199139610007,755.6043790370004,755.1199139610007,None,29,10,0,None,None,6,001,exponential,bryg,0.75-0.35,2021_May_18_1419,color_judgement_and_subjective_perception,2020.2.10,60.05344804914688,
2,0.75,testing,1000,1,,,,,,,,,0,0,0,0,,,,,13,0,52,2,756.2043056470002,None,f,0.2544716080001308,756.3041549290001,None,755.7040068810002,756.1208781430005,756.5874831820001,757.0876815219999,756.5874831820001,None,28,28,0,None,None,6,001,exponential,bryg,0.75-0.35,2021_May_18_1419,color_judgement_and_subjective_perception,2020.2.10,60.05344804914688,
3,0.75,testing,1000,1,,,,,,,,,0,0,0,0,,,,,13,1,53,3,757.6878679540005,None,k,0.46670788299979904,757.7878486550007,None,757.1874597490005,757.6046107970005,758.2736195800007,758.7712027580001,758.2736195800007,None,0,43,0,None,None,6,001,exponential,bryg,0.75-0.35,2021_May_18_1419,color_judgement_and_subjective_perception,2020.2.10,60.05344804914688,
0,0.75,testing,1000,1,,,,,,,,,0,0,0,0,,,,,13,2,54,0,759.3712957490006,None,j,0.727211860999887,759.4712953870003,None,758.8712128690004,759.2880158960006,760.2205433140007,760.7058080820007,760.2205433140007,None,0,0,37,None,None,6,001,exponential,bryg,0.75-0.35,2021_May_18_1419,color_judgement_and_subjective_perception,2020.2.10,60.05344804914688,
3,0.75,testing,1000,1,,,,,,,,,0,0,0,0,,,,,13,3,55,3,761.3057896690007,None,k,0.584789622000244,761.4058287600001,None,760.8056532990004,761.2224209020005,762.0240112850006,762.5227173660005,762.0240112850006,None,0,44,0,None,None,6,001,exponential,bryg,0.75-0.35,2021_May_18_1419,color_judgement_and_subjective_perception,2020.2.10,60.05344804914688,
0,0.75,testing,1000,1,,,,,,,,,0,0,0,0,,,,,14,0,56,0,763.1229648730005,None,d,0.5036957129996154,763.2228870460003,None,762.622487056,763.0394879940004,763.7561348100007,764.25628831,763.7561348100007,None,0,0,40,None,None,6,001,exponential,bryg,0.75-0.35,2021_May_18_1419,color_judgement_and_subjective_perception,2020.2.10,60.05344804914688,
2,0.75,testing,1000,1,,,,,,,,,0,0,0,0,,,,,14,1,57,2,764.8563328110004,None,j,0.6900453820007897,764.9565378289999,None,764.3560727630002,764.7729417780001,765.6737719780003,766.1739670860006,765.6737719780003,None,34,34,0,None,None,6,001,exponential,bryg,0.75-0.35,2021_May_18_1419,color_judgement_and_subjective_perception,2020.2.10,60.05344804914688,
3,0.75,testing,1000,1,,,,,,,,,0,0,0,0,,,,,14,2,58,3,766.7741369610003,None,k,0.4204825950000668,766.8741258890004,None,766.2738937510003,766.6907578220007,767.3241472310001,767.824233409,767.3241472310001,None,0,46,0,None,None,6,001,exponential,bryg,0.75-0.35,2021_May_18_1419,color_judgement_and_subjective_perception,2020.2.10,60.05344804914688,
0,0.75,testing,1000,1,,,,,,,,,0,0,0,0,,,,,14,3,59,0,768.4243563810005,None,d,0.48218517799978144,768.5243909440005,None,767.9242943970003,768.3410101060008,769.0243825050002,769.5244881400004,769.0243825050002,None,0,0,42,None,None,6,001,exponential,bryg,0.75-0.35,2021_May_18_1419,color_judgement_and_subjective_perception,2020.2.10,60.05344804914688,
1,0.75,testing,1000,1,,,,,,,,,0,0,0,0,,,,,15,0,60,1,770.1246417299999,None,f,0.43073655599982885,770.2159247050004,None,769.6244536690001,770.0413672690001,770.6752861580007,771.175581341,770.6752861580007,None,35,12,0,None,None,6,001,exponential,bryg,0.75-0.35,2021_May_18_1419,color_judgement_and_subjective_perception,2020.2.10,60.05344804914688,
1,0.75,testing,1000,1,,,,,,,,,0,0,0,0,,,,,15,1,61,1,771.7755877700001,None,f,0.42688663299941254,771.8756773970008,None,771.2753876890001,771.6924236130008,772.32577373,772.8259947910001,772.32577373,None,35,12,0,None,None,6,001,exponential,bryg,0.75-0.35,2021_May_18_1419,color_judgement_and_subjective_perception,2020.2.10,60.05344804914688,
3,0.75,testing,1000,1,,,,,,,,,0,0,0,0,,,,,15,2,62,3,773.4259361270006,None,k,0.5846715849993416,773.5259477690006,None,772.925836804,773.3426395260003,774.1424945880008,774.64288468,774.1424945880008,None,0,41,0,None,None,6,001,exponential,bryg,0.75-0.35,2021_May_18_1419,color_judgement_and_subjective_perception,2020.2.10,60.05344804914688,
3,0.75,testing,1000,1,,,,,,,,,0,0,0,0,,,,,15,3,63,3,775.2276784400001,None,k,0.5834222440007579,775.3271649970002,None,774.7426334320007,775.1595902340005,775.9277509760004,776.4271872680001,775.9277509760004,None,0,39,0,None,None,6,001,exponential,bryg,0.75-0.35,2021_May_18_1419,color_judgement_and_subjective_perception,2020.2.10,60.05344804914688,
2,0.75,testing,1000,1,,,,,,,,,0,0,0,0,,,,,16,0,64,2,777.027295887,None,j,0.6472131299997272,777.1274102350008,None,776.5270266330008,776.9439274160004,777.7941124900008,778.294260269,777.7941124900008,None,30,30,0,None,None,6,001,exponential,bryg,0.75-0.35,2021_May_18_1419,color_judgement_and_subjective_perception,2020.2.10,60.05344804914688,
