color_idx_ind,target_acc,mode,response_deadline,block_number,trials_training.thisRepN,trials_training.thisTrialN,trials_training.thisN,trials_training.thisIndex,trials_training_deadline.thisRepN,trials_training_deadline.thisTrialN,trials_training_deadline.thisN,trials_training_deadline.thisIndex,blocks.thisRepN,blocks.thisTrialN,blocks.thisN,blocks.thisIndex,trials_staircase.thisRepN,trials_staircase.thisTrialN,trials_staircase.thisN,trials_staircase.thisIndex,trials.thisRepN,trials.thisTrialN,trials.thisN,trials.thisIndex,stimulus_ind.started,stimulus_ind.stopped,key_resp_ind.keys,key_resp_ind.rt,key_resp_ind.started,key_resp_ind.stopped,fixation_cross_1_ind.started,fixation_cross_1_ind.stopped,text.started,text.stopped,dummy_text.started,dummy_text.stopped,stim_ind_color_rgb_r,stim_ind_color_rgb_g,stim_ind_color_rgb_b,text_break_block.started,text_break_block.stopped,participant,session,accuracy_weighting,color_mapping,block_difficulties,date,expName,psychopyVersion,frameRate,
2,0.9,training,1000000000000,,0,0,0,0,,,,,,,,,,,,,,,,,568.3732712860001,None,j,3.3204026089988474,568.4732503560008,None,567.8768901270014,568.2898297829997,571.8266607630012,572.3249843230005,571.8266607630012,None,,,,,,7,001,exponential,bryg,0.35-0.75,2021_May_18_1550,color_judgement_and_subjective_perception,2020.2.10,60.04668822186134,
3,0.9,training,1000000000000,,0,1,1,1,,,,,,,,,,,,,,,,,572.924998632001,None,k,1.4166912250002497,573.0249727250011,None,572.4247419720014,572.8416376100013,574.4583572760002,574.9428827049996,574.4583572760002,None,,,,,,7,001,exponential,bryg,0.35-0.75,2021_May_18_1550,color_judgement_and_subjective_perception,2020.2.10,60.04668822186134,
2,0.9,training,1000000000000,,0,2,2,2,,,,,,,,,,,,,,,,,575.5427790640006,None,j,0.5429626719997032,575.6427074290004,None,575.0426950010005,575.4595271720009,576.209335992,576.7096406990004,576.209335992,None,,,,,,7,001,exponential,bryg,0.35-0.75,2021_May_18_1550,color_judgement_and_subjective_perception,2020.2.10,60.04668822186134,
0,0.9,training,1000000000000,,0,3,3,3,,,,,,,,,,,,,,,,,577.3097775980004,None,d,1.1678203890005534,577.4098567230012,None,576.8095192540004,577.2264430089999,578.6097601950005,579.1100121039999,578.6097601950005,None,,,,,,7,001,exponential,bryg,0.35-0.75,2021_May_18_1550,color_judgement_and_subjective_perception,2020.2.10,60.04668822186134,
1,0.9,training,1000000000000,,0,4,4,4,,,,,,,,,,,,,,,,,579.7101695100009,None,f,1.167369194999992,579.8102257800001,None,579.2099244190013,579.6267482880012,581.0109221290004,581.511258546001,581.0109221290004,None,,,,,,7,001,exponential,bryg,0.35-0.75,2021_May_18_1550,color_judgement_and_subjective_perception,2020.2.10,60.04668822186134,
3,0.9,training,1000000000000,,0,5,5,5,,,,,,,,,,,,,,,,,582.1113381450014,None,k,1.126374580000629,582.211296939,None,581.6111019990003,582.027915273,583.3613444510011,583.8615536760008,583.3613444510011,None,,,,,,7,001,exponential,bryg,0.35-0.75,2021_May_18_1550,color_judgement_and_subjective_perception,2020.2.10,60.04668822186134,
1,0.9,training,1000000000000,,0,6,6,6,,,,,,,,,,,,,,,,,584.4615741550006,None,f,1.1201398539997172,584.5615468380001,None,583.9613639910003,584.3783670860012,585.712407209001,586.212742312,585.712407209001,None,,,,,,7,001,exponential,bryg,0.35-0.75,2021_May_18_1550,color_judgement_and_subjective_perception,2020.2.10,60.04668822186134,
0,0.9,training,1000000000000,,0,7,7,7,,,,,,,,,,,,,,,,,586.812710573,None,d,1.056880320998971,586.9128031230011,None,586.3125159009996,586.729317288,587.99608257,588.4964175180012,587.99608257,None,,,,,,7,001,exponential,bryg,0.35-0.75,2021_May_18_1550,color_judgement_and_subjective_perception,2020.2.10,60.04668822186134,
2,0.9,training,1000000000000,,0,8,8,8,,,,,,,,,,,,,,,,,589.0964807520013,None,j,0.9172653850000643,589.196474149001,None,588.5963403189999,589.0130273430004,590.1305911070012,590.6307197250007,590.1305911070012,None,,,,,,7,001,exponential,bryg,0.35-0.75,2021_May_18_1550,color_judgement_and_subjective_perception,2020.2.10,60.04668822186134,
0,0.9,training,1000000000000,,0,9,9,9,,,,,,,,,,,,,,,,,591.2307548170011,None,d,0.5428295399997296,591.3308339560008,None,590.7305704219998,591.1474881390004,591.8976848680013,592.3979285500009,591.8976848680013,None,,,,,,7,001,exponential,bryg,0.35-0.75,2021_May_18_1550,color_judgement_and_subjective_perception,2020.2.10,60.04668822186134,
1,0.9,training,1000000000000,,0,10,10,10,,,,,,,,,,,,,,,,,592.9979284769997,None,f,0.4398474690005969,593.0978230809997,None,592.4974637220002,592.914506774001,593.564585614,594.0645877429997,593.564585614,None,,,,,,7,001,exponential,bryg,0.35-0.75,2021_May_18_1550,color_judgement_and_subjective_perception,2020.2.10,60.04668822186134,
0,0.9,training,1000000000000,,0,11,11,11,,,,,,,,,,,,,,,,,594.6648313269998,None,d,0.6208284519998415,594.7648352680008,None,594.1647011530004,594.5814191660011,595.4155819520001,595.9158220610007,595.4155819520001,None,,,,,,7,001,exponential,bryg,0.35-0.75,2021_May_18_1550,color_judgement_and_subjective_perception,2020.2.10,60.04668822186134,
2,0.9,training,1000000000000,,0,12,12,12,,,,,,,,,,,,,,,,,596.5158840330005,None,k,0.6097634379984811,596.6159054190011,None,596.0157229460001,596.4325543410014,597.2493049109999,597.7494614370007,597.2493049109999,None,,,,,,7,001,exponential,bryg,0.35-0.75,2021_May_18_1550,color_judgement_and_subjective_perception,2020.2.10,60.04668822186134,
3,0.9,training,1000000000000,,0,13,13,13,,,,,,,,,,,,,,,,,598.3495197660013,None,k,1.176234349999504,598.4494366990002,None,597.8493113940003,598.266145814001,599.6495400270014,600.1340826329997,599.6495400270014,None,,,,,,7,001,exponential,bryg,0.35-0.75,2021_May_18_1550,color_judgement_and_subjective_perception,2020.2.10,60.04668822186134,
1,0.9,training,1000000000000,,0,14,14,14,,,,,,,,,,,,,,,,,600.7341525580014,None,f,1.2076807569992525,600.8339949210003,None,600.2339199050002,600.6506647590013,602.0673473160005,602.5677575749996,602.0673473160005,None,,,,,,7,001,exponential,bryg,0.35-0.75,2021_May_18_1550,color_judgement_and_subjective_perception,2020.2.10,60.04668822186134,
3,0.9,training,1000000000000,,0,15,15,15,,,,,,,,,,,,,,,,,603.1678011410004,None,k,1.053990098000213,603.2676877400008,None,602.6675917920002,603.0845669549999,604.3510548499999,604.8513358700002,604.3510548499999,None,,,,,,7,001,exponential,bryg,0.35-0.75,2021_May_18_1550,color_judgement_and_subjective_perception,2020.2.10,60.04668822186134,
2,0.9,training,1000000000000,,0,16,16,16,,,,,,,,,,,,,,,,,605.4355799229998,None,j,0.39386658600051305,605.5357261750014,None,604.9354178480007,605.352396241,605.9521301550012,606.4523546740002,605.9521301550012,None,,,,,,7,001,exponential,bryg,0.35-0.75,2021_May_18_1550,color_judgement_and_subjective_perception,2020.2.10,60.04668822186134,
0,0.9,training,1000000000000,,0,17,17,17,,,,,,,,,,,,,,,,,607.0524564650004,None,d,0.5693124520003039,607.1523838339999,None,606.5521872010013,606.9691485350013,607.7525092600008,608.2525956000009,607.7525092600008,None,,,,,,7,001,exponential,bryg,0.35-0.75,2021_May_18_1550,color_judgement_and_subjective_perception,2020.2.10,60.04668822186134,
3,0.9,training,1000000000000,,0,18,18,18,,,,,,,,,,,,,,,,,608.8527125750006,None,k,0.6730639140005223,608.952615397,None,608.3525836230001,608.7693422330012,609.6527851330011,610.1370193270013,609.6527851330011,None,,,,,,7,001,exponential,bryg,0.35-0.75,2021_May_18_1550,color_judgement_and_subjective_perception,2020.2.10,60.04668822186134,
0,0.9,training,1000000000000,,0,19,19,19,,,,,,,,,,,,,,,,,610.7371110519998,None,d,1.6765694480000093,610.8371460520011,None,610.2370274189998,610.6538719630007,612.5375674719999,613.0375315110014,612.5375674719999,None,,,,,,7,001,exponential,bryg,0.35-0.75,2021_May_18_1550,color_judgement_and_subjective_perception,2020.2.10,60.04668822186134,
2,0.9,training,1000000000000,,0,20,20,20,,,,,,,,,,,,,,,,,613.6376438900006,None,j,0.9759187219988235,613.7377555620005,None,613.1375697100011,613.5542039339998,614.7376424140002,615.2221630479999,614.7376424140002,None,,,,,,7,001,exponential,bryg,0.35-0.75,2021_May_18_1550,color_judgement_and_subjective_perception,2020.2.10,60.04668822186134,
3,0.9,training,1000000000000,,0,21,21,21,,,,,,,,,,,,,,,,,615.8220681270013,None,k,0.7756154629987577,615.9220673590007,None,615.321898182001,615.7387369520002,616.7219702000002,617.2223790549997,616.7219702000002,None,,,,,,7,001,exponential,bryg,0.35-0.75,2021_May_18_1550,color_judgement_and_subjective_perception,2020.2.10,60.04668822186134,
1,0.9,training,1000000000000,,0,22,22,22,,,,,,,,,,,,,,,,,617.822578622001,None,f,1.0791181069998856,617.9225678769999,None,617.3224127430003,617.7380290560013,619.0224679950006,619.5225541150012,619.0224679950006,None,,,,,,7,001,exponential,bryg,0.35-0.75,2021_May_18_1550,color_judgement_and_subjective_perception,2020.2.10,60.04668822186134,
2,0.9,training,1000000000000,,0,23,23,23,,,,,,,,,,,,,,,,,620.1070849450007,None,j,0.7227205660001346,620.2069735130008,None,619.622647405,620.023589116001,620.9569359790003,621.4570911840001,620.9569359790003,None,,,,,,7,001,exponential,bryg,0.35-0.75,2021_May_18_1550,color_judgement_and_subjective_perception,2020.2.10,60.04668822186134,
3,0.9,training,1000000000000,,0,24,24,24,,,,,,,,,,,,,,,,,622.057285963001,None,k,0.724411617999067,622.1572776539997,None,621.5571116669998,621.9739308650005,622.9071495700009,623.4074307010014,622.9071495700009,None,,,,,,7,001,exponential,bryg,0.35-0.75,2021_May_18_1550,color_judgement_and_subjective_perception,2020.2.10,60.04668822186134,
1,0.9,training,1000000000000,,0,25,25,25,,,,,,,,,,,,,,,,,624.0075204390014,None,f,1.222105933000421,624.1075516649998,None,623.5074053139997,623.924324216001,625.3584569720006,625.8585086230014,625.3584569720006,None,,,,,,7,001,exponential,bryg,0.35-0.75,2021_May_18_1550,color_judgement_and_subjective_perception,2020.2.10,60.04668822186134,
0,0.9,training,1000000000000,,0,26,26,26,,,,,,,,,,,,,,,,,626.458589146001,None,d,1.2108956850006507,626.5586778730012,None,625.9584680320004,626.3752287830011,627.7921180869998,628.2924546070008,627.7921180869998,None,,,,,,7,001,exponential,bryg,0.35-0.75,2021_May_18_1550,color_judgement_and_subjective_perception,2020.2.10,60.04668822186134,
3,0.9,training,1000000000000,,0,27,27,27,,,,,,,,,,,,,,,,,628.892458186001,None,k,0.6011434840002039,628.992484155,None,628.392258490001,628.8088424140005,629.6255932090007,630.1100673569999,629.6255932090007,None,,,,,,7,001,exponential,bryg,0.35-0.75,2021_May_18_1550,color_judgement_and_subjective_perception,2020.2.10,60.04668822186134,
1,0.9,training,1000000000000,,0,28,28,28,,,,,,,,,,,,,,,,,630.7100962430013,None,f,0.5835646509985963,630.8100911300007,None,630.2101165940003,630.6268241890011,631.4101849950002,631.9103629710007,631.4101849950002,None,,,,,,7,001,exponential,bryg,0.35-0.75,2021_May_18_1550,color_judgement_and_subjective_perception,2020.2.10,60.04668822186134,
2,0.9,training,1000000000000,,0,29,29,29,,,,,,,,,,,,,,,,,632.5106592760003,None,j,0.4792171250010142,632.6104521020006,None,632.0103183840001,632.4271598840005,633.110342254,633.610705168001,633.110342254,None,,,,,,7,001,exponential,bryg,0.35-0.75,2021_May_18_1550,color_judgement_and_subjective_perception,2020.2.10,60.04668822186134,
1,0.9,training,1000000000000,,0,30,30,30,,,,,,,,,,,,,,,,,634.210867922,None,f,0.8189253889995598,634.3107328670012,None,633.7105052670013,634.1273460030006,635.1615360140004,635.6616281639999,635.1615360140004,None,,,,,,7,001,exponential,bryg,0.35-0.75,2021_May_18_1550,color_judgement_and_subjective_perception,2020.2.10,60.04668822186134,
0,0.9,training,1000000000000,,0,31,31,31,,,,,,,,,,,,,,,,,636.2618769600012,None,d,1.543938144999629,636.3617339430002,None,635.7616721030008,636.1785910550007,637.9286752790013,638.429003913001,637.9286752790013,None,,,,,,7,001,exponential,bryg,0.35-0.75,2021_May_18_1550,color_judgement_and_subjective_perception,2020.2.10,60.04668822186134,
2,0.9,training,1000,,,,,,0,0,0,0,,,,,,,,,,,,,643.8970902159999,None,None,-1,643.9971409600003,None,643.3993870510003,643.8137746510001,644.9124611650004,645.398408983001,644.9124611650004,None,,,,,,7,001,exponential,bryg,0.35-0.75,2021_May_18_1550,color_judgement_and_subjective_perception,2020.2.10,60.04668822186134,
3,0.9,training,1000,,,,,,0,1,1,1,,,,,,,,,,,,,645.9984075339999,None,k,0.6714926170006947,646.0982539329998,None,645.4982069240014,645.9148829950009,646.7983053380012,647.2986514960012,646.7983053380012,None,,,,,,7,001,exponential,bryg,0.35-0.75,2021_May_18_1550,color_judgement_and_subjective_perception,2020.2.10,60.04668822186134,
1,0.9,training,1000,,,,,,0,2,2,2,,,,,,,,,,,,,647.8987205869998,None,f,0.4588768560006429,647.9988062110006,None,647.3985174640002,647.8154010300004,648.4818755690012,648.9820186150009,648.4818755690012,None,,,,,,7,001,exponential,bryg,0.35-0.75,2021_May_18_1550,color_judgement_and_subjective_perception,2020.2.10,60.04668822186134,
2,0.9,training,1000,,,,,,0,3,3,3,,,,,,,,,,,,,649.5821997430012,None,j,0.41538017300081265,649.6822892590008,None,649.0818827439998,649.4989114580003,650.1164136509997,650.6163713690003,650.1164136509997,None,,,,,,7,001,exponential,bryg,0.35-0.75,2021_May_18_1550,color_judgement_and_subjective_perception,2020.2.10,60.04668822186134,
0,0.9,training,1000,,,,,,0,4,4,4,,,,,,,,,,,,,651.2164662900013,None,d,0.25303779000023496,651.3166403490013,None,650.7164214430013,651.1332255890011,651.5999437120008,652.0999070750004,651.5999437120008,None,,,,,,7,001,exponential,bryg,0.35-0.75,2021_May_18_1550,color_judgement_and_subjective_perception,2020.2.10,60.04668822186134,
1,0.9,training,1000,,,,,,0,5,5,5,,,,,,,,,,,,,652.7003197539998,None,f,0.20134885399966151,652.8003033840014,None,652.1997049729998,652.6167627450013,653.033329838001,653.53351716,653.033329838001,None,,,,,,7,001,exponential,bryg,0.35-0.75,2021_May_18_1550,color_judgement_and_subjective_perception,2020.2.10,60.04668822186134,
2,0.9,training,1000,,,,,,0,6,6,6,,,,,,,,,,,,,654.1333937090003,None,j,0.544104492999395,654.2335531179997,None,653.6334203990009,654.0505330430005,654.8003382770003,655.2848776500014,654.8003382770003,None,,,,,,7,001,exponential,bryg,0.35-0.75,2021_May_18_1550,color_judgement_and_subjective_perception,2020.2.10,60.04668822186134,
3,0.9,training,1000,,,,,,0,7,7,7,,,,,,,,,,,,,655.8847142089999,None,k,0.23290732500026934,655.9847322599999,None,655.3847820280007,655.8013733799999,656.2346278679997,656.7349946699997,656.2346278679997,None,,,,,,7,001,exponential,bryg,0.35-0.75,2021_May_18_1550,color_judgement_and_subjective_perception,2020.2.10,60.04668822186134,
0,0.9,training,1000,,,,,,0,8,8,8,,,,,,,,,,,,,657.3351085630002,None,d,0.2942772509995848,657.435319776001,None,656.8349029250003,657.2516437040013,657.7517357329998,658.251939310001,657.7517357329998,None,,,,,,7,001,exponential,bryg,0.35-0.75,2021_May_18_1550,color_judgement_and_subjective_perception,2020.2.10,60.04668822186134,
1,0.9,training,1000,,,,,,0,9,9,9,,,,,,,,,,,,,658.8519863500005,None,f,0.1936603060003108,658.951975977001,None,658.3518515770011,658.7687172160004,659.1685501470001,659.6687963620006,659.1685501470001,None,,,,,,7,001,exponential,bryg,0.35-0.75,2021_May_18_1550,color_judgement_and_subjective_perception,2020.2.10,60.04668822186134,
2,0.9,training,1000,,,,,,0,10,10,10,,,,,,,,,,,,,660.2530168570011,None,j,0.47261489999982587,660.35308205,None,659.7685222640011,660.1694954699997,660.8530115470003,661.3531871790001,660.8530115470003,None,,,,,,7,001,exponential,bryg,0.35-0.75,2021_May_18_1550,color_judgement_and_subjective_perception,2020.2.10,60.04668822186134,
0,0.9,training,1000,,,,,,0,11,11,11,,,,,,,,,,,,,661.9530948749998,None,d,0.4283622260008997,662.053320768,None,661.4530631230009,661.8698072110001,662.503198335,663.0033569099996,662.503198335,None,,,,,,7,001,exponential,bryg,0.35-0.75,2021_May_18_1550,color_judgement_and_subjective_perception,2020.2.10,60.04668822186134,
2,0.9,training,1000,,,,,,0,12,12,12,,,,,,,,,,,,,663.603485003001,None,j,0.41005743200003053,663.7035854559999,None,663.1033991920012,663.5202183580004,664.1368592060007,664.6369553160002,664.1368592060007,None,,,,,,7,001,exponential,bryg,0.35-0.75,2021_May_18_1550,color_judgement_and_subjective_perception,2020.2.10,60.04668822186134,
0,0.9,training,1000,,,,,,0,13,13,13,,,,,,,,,,,,,665.2213507859997,None,f,0.44034842400105845,665.3213193990014,None,664.7369837170008,665.1378427460004,665.7878464940004,666.2880251429997,665.7878464940004,None,,,,,,7,001,exponential,bryg,0.35-0.75,2021_May_18_1550,color_judgement_and_subjective_perception,2020.2.10,60.04668822186134,
2,0.9,training,1000,,,,,,0,14,14,14,,,,,,,,,,,,,666.8880743850004,None,j,0.509525883000606,666.9881435269999,None,666.3879825410004,666.8047452250012,667.5213763680003,668.0215336340007,667.5213763680003,None,,,,,,7,001,exponential,bryg,0.35-0.75,2021_May_18_1550,color_judgement_and_subjective_perception,2020.2.10,60.04668822186134,
3,0.9,training,1000,,,,,,0,15,15,15,,,,,,,,,,,,,668.6216231950002,None,k,0.2641108900006657,668.7215644200005,None,668.1216803320003,668.5383284649997,669.0050272040007,669.5050351549999,669.0050272040007,None,,,,,,7,001,exponential,bryg,0.35-0.75,2021_May_18_1550,color_judgement_and_subjective_perception,2020.2.10,60.04668822186134,
2,0.9,training,1000,,,,,,0,16,16,16,,,,,,,,,,,,,670.0894662680003,None,k,0.6921318269996846,670.1895506000001,None,669.6053580460011,670.0060629079999,670.9058916169997,671.4062156500004,670.9058916169997,None,,,,,,7,001,exponential,bryg,0.35-0.75,2021_May_18_1550,color_judgement_and_subjective_perception,2020.2.10,60.04668822186134,
1,0.9,training,1000,,,,,,0,17,17,17,,,,,,,,,,,,,672.0063474660001,None,f,0.5110285729988391,672.1065537539998,None,671.5062882180009,671.922872092,672.6397653980002,673.1398815049997,672.6397653980002,None,,,,,,7,001,exponential,bryg,0.35-0.75,2021_May_18_1550,color_judgement_and_subjective_perception,2020.2.10,60.04668822186134,
0,0.9,training,1000,,,,,,0,18,18,18,,,,,,,,,,,,,673.7399537550009,None,d,0.4576727249987016,673.8399835359996,None,673.2398745219998,673.6565234810005,674.3231749580009,674.823442668001,674.3231749580009,None,,,,,,7,001,exponential,bryg,0.35-0.75,2021_May_18_1550,color_judgement_and_subjective_perception,2020.2.10,60.04668822186134,
2,0.9,training,1000,,,,,,0,19,19,19,,,,,,,,,,,,,675.4078643740013,None,j,0.6619911279994994,675.5076986920012,None,674.921961475,675.3244660640012,676.1910128500003,676.6911818839999,676.1910128500003,None,,,,,,7,001,exponential,bryg,0.35-0.75,2021_May_18_1550,color_judgement_and_subjective_perception,2020.2.10,60.04668822186134,
3,0.9,training,1000,,,,,,0,20,20,20,,,,,,,,,,,,,677.2913768260005,None,k,0.2742025879997527,677.3914610610009,None,676.7911092610011,677.2081417259997,677.691347891001,678.1914011460012,677.691347891001,None,,,,,,7,001,exponential,bryg,0.35-0.75,2021_May_18_1550,color_judgement_and_subjective_perception,2020.2.10,60.04668822186134,
1,0.9,training,1000,,,,,,0,21,21,21,,,,,,,,,,,,,678.7914421620007,None,f,0.3421642960001918,678.8914839830013,None,678.2913649590009,678.7081329829998,679.258240227,679.7582849500013,679.258240227,None,,,,,,7,001,exponential,bryg,0.35-0.75,2021_May_18_1550,color_judgement_and_subjective_perception,2020.2.10,60.04668822186134,
3,0.9,training,1000,,,,,,0,22,22,22,,,,,,,,,,,,,680.3427649140012,None,j,0.45514304599964817,680.442528601001,None,679.8583727719997,680.259333856,680.9258675100009,681.4262140339997,680.9258675100009,None,,,,,,7,001,exponential,bryg,0.35-0.75,2021_May_18_1550,color_judgement_and_subjective_perception,2020.2.10,60.04668822186134,
1,0.9,training,1000,,,,,,0,23,23,23,,,,,,,,,,,,,682.026305450001,None,f,0.5634205490005115,682.1262686059999,None,681.5260822470009,681.9428898450005,682.7095754849997,683.2096693550011,682.7095754849997,None,,,,,,7,001,exponential,bryg,0.35-0.75,2021_May_18_1550,color_judgement_and_subjective_perception,2020.2.10,60.04668822186134,
3,0.9,training,1000,,,,,,0,24,24,24,,,,,,,,,,,,,683.8096659710009,None,k,0.5638734089989157,683.9098222840003,None,683.3097297599998,683.7266206910008,684.4931554249997,684.9775361000011,684.4931554249997,None,,,,,,7,001,exponential,bryg,0.35-0.75,2021_May_18_1550,color_judgement_and_subjective_perception,2020.2.10,60.04668822186134,
0,0.9,training,1000,,,,,,0,25,25,25,,,,,,,,,,,,,685.5776283180003,None,d,0.46814956799971696,685.6775257099998,None,685.0774888060005,685.4941772950006,686.1774205110014,686.6777494710004,686.1774205110014,None,,,,,,7,001,exponential,bryg,0.35-0.75,2021_May_18_1550,color_judgement_and_subjective_perception,2020.2.10,60.04668822186134,
1,0.9,training,1000,,,,,,0,26,26,26,,,,,,,,,,,,,687.2778135540011,None,f,0.3918809240003611,687.3777981760013,None,686.777722195,687.1946548699998,687.7945497250003,688.2947748820006,687.7945497250003,None,,,,,,7,001,exponential,bryg,0.35-0.75,2021_May_18_1550,color_judgement_and_subjective_perception,2020.2.10,60.04668822186134,
3,0.9,training,1000,,,,,,0,27,27,27,,,,,,,,,,,,,688.8946846280014,None,k,0.5829097899986664,688.9947549380013,None,688.3945750860003,688.8113138000008,689.594756302,690.0789983570012,689.594756302,None,,,,,,7,001,exponential,bryg,0.35-0.75,2021_May_18_1550,color_judgement_and_subjective_perception,2020.2.10,60.04668822186134,
2,0.9,training,1000,,,,,,0,28,28,28,,,,,,,,,,,,,690.6790553320006,None,j,0.3266377250001824,690.7790613260004,None,690.1791039390009,690.5959549039999,691.1290544120002,691.6293961339998,691.1290544120002,None,,,,,,7,001,exponential,bryg,0.35-0.75,2021_May_18_1550,color_judgement_and_subjective_perception,2020.2.10,60.04668822186134,
0,0.9,training,1000,,,,,,0,29,29,29,,,,,,,,,,,,,692.2295315240008,None,d,0.4401227239995933,692.3295567290006,None,691.7293187790001,692.146063825001,692.7962666020012,693.2963363100007,692.7962666020012,None,,,,,,7,001,exponential,bryg,0.35-0.75,2021_May_18_1550,color_judgement_and_subjective_perception,2020.2.10,60.04668822186134,
2,0.9,training,1000,,,,,,0,30,30,30,,,,,,,,,,,,,693.896310909,None,None,-1,693.9963276130002,None,693.3962102590012,693.8129191349999,694.9129776099999,695.3974412650005,694.9129776099999,None,,,,,,7,001,exponential,bryg,0.35-0.75,2021_May_18_1550,color_judgement_and_subjective_perception,2020.2.10,60.04668822186134,
3,0.9,training,1000,,,,,,0,31,31,31,,,,,,,,,,,,,695.9974002150011,None,j,0.6724064599984558,696.0972853969997,None,695.4974222440014,695.9140252350007,696.7974463040009,697.2978466780005,696.7974463040009,None,,,,,,7,001,exponential,bryg,0.35-0.75,2021_May_18_1550,color_judgement_and_subjective_perception,2020.2.10,60.04668822186134,
0,0.9,training,1000,,,,,,0,32,32,32,,,,,,,,,,,,,697.8976721360013,None,f,0.7237612879998778,697.9979097329997,None,697.3977794849998,697.8143610040006,698.7476433829997,699.2479638000004,698.7476433829997,None,,,,,,7,001,exponential,bryg,0.35-0.75,2021_May_18_1550,color_judgement_and_subjective_perception,2020.2.10,60.04668822186134,
1,0.9,training,1000,,,,,,0,33,33,33,,,,,,,,,,,,,699.8480950600006,None,f,0.5022048720002203,699.939507946001,None,699.3477612040006,699.7646908059996,700.4656263160014,700.9657146360005,700.4656263160014,None,,,,,,7,001,exponential,bryg,0.35-0.75,2021_May_18_1550,color_judgement_and_subjective_perception,2020.2.10,60.04668822186134,
3,0.9,training,1000,,,,,,0,34,34,34,,,,,,,,,,,,,701.565863668,None,k,0.6879617790000339,701.6657241520006,None,701.0656515240007,701.4824908900009,702.3825308380001,702.8827536070003,702.3825308380001,None,,,,,,7,001,exponential,bryg,0.35-0.75,2021_May_18_1550,color_judgement_and_subjective_perception,2020.2.10,60.04668822186134,
0,0.9,training,1000,,,,,,0,35,35,35,,,,,,,,,,,,,703.4828239460003,None,d,0.5388765590014373,703.5827765579998,None,702.9827633920013,703.399374726001,704.1493423640004,704.6495597020003,704.1493423640004,None,,,,,,7,001,exponential,bryg,0.35-0.75,2021_May_18_1550,color_judgement_and_subjective_perception,2020.2.10,60.04668822186134,
1,0.9,training,1000,,,,,,0,36,36,36,,,,,,,,,,,,,705.2339094180006,None,f,0.22784094500093488,705.333735309001,None,704.7495490800011,705.1505891260003,705.5839107030006,706.0840128170003,705.5839107030006,None,,,,,,7,001,exponential,bryg,0.35-0.75,2021_May_18_1550,color_judgement_and_subjective_perception,2020.2.10,60.04668822186134,
3,0.9,training,1000,,,,,,0,37,37,37,,,,,,,,,,,,,706.6840479450002,None,k,0.6576099649992102,706.784073711,None,706.1839462120006,706.6006805890011,707.4674467860004,707.9677137320014,707.4674467860004,None,,,,,,7,001,exponential,bryg,0.35-0.75,2021_May_18_1550,color_judgement_and_subjective_perception,2020.2.10,60.04668822186134,
1,0.9,training,1000,,,,,,0,38,38,38,,,,,,,,,,,,,708.5678031530006,None,f,0.5818546930004231,708.6677509140009,None,708.0676502040005,708.4842548160013,709.2676405809998,709.7679406520001,709.2676405809998,None,,,,,,7,001,exponential,bryg,0.35-0.75,2021_May_18_1550,color_judgement_and_subjective_perception,2020.2.10,60.04668822186134,
0,0.9,training,1000,,,,,,0,39,39,39,,,,,,,,,,,,,710.3522883410005,None,d,0.5255166209990421,710.4521587580002,None,709.8679060539998,710.2687567700013,711.0021317110004,711.5023329539999,711.0021317110004,None,,,,,,7,001,exponential,bryg,0.35-0.75,2021_May_18_1550,color_judgement_and_subjective_perception,2020.2.10,60.04668822186134,
2,0.9,training,1000,,,,,,0,40,40,40,,,,,,,,,,,,,712.1025536770012,None,j,0.31918340000083845,712.2025158810011,None,711.6022151100005,712.0189896320007,712.5520822750004,713.0525676409998,712.5520822750004,None,,,,,,7,001,exponential,bryg,0.35-0.75,2021_May_18_1550,color_judgement_and_subjective_perception,2020.2.10,60.04668822186134,
1,0.9,training,1000,,,,,,0,41,41,41,,,,,,,,,,,,,713.652683915001,None,f,0.4729620630005229,713.7526199790009,None,713.1521665790005,713.56920618,714.2525448619999,714.7528423840013,714.2525448619999,None,,,,,,7,001,exponential,bryg,0.35-0.75,2021_May_18_1550,color_judgement_and_subjective_perception,2020.2.10,60.04668822186134,
2,0.9,training,1000,,,,,,0,42,42,42,,,,,,,,,,,,,715.3371962520014,None,j,0.7483975579998514,715.4371930610014,None,714.8527625140014,715.2539311340006,716.203805815001,716.7039783620003,716.203805815001,None,,,,,,7,001,exponential,bryg,0.35-0.75,2021_May_18_1550,color_judgement_and_subjective_perception,2020.2.10,60.04668822186134,
3,0.9,training,1000,,,,,,0,43,43,43,,,,,,,,,,,,,717.304094725001,None,k,0.5734367980003299,717.4042352360011,None,716.8038577000007,717.2206884340012,718.0041850440011,718.5042094380005,718.0041850440011,None,,,,,,7,001,exponential,bryg,0.35-0.75,2021_May_18_1550,color_judgement_and_subjective_perception,2020.2.10,60.04668822186134,
0,0.9,training,1000,,,,,,0,44,44,44,,,,,,,,,,,,,719.1042154620009,None,d,0.49331480899854796,719.2043549040009,None,718.6041200770014,719.0210950500004,719.720911286,720.2052963470014,719.720911286,None,,,,,,7,001,exponential,bryg,0.35-0.75,2021_May_18_1550,color_judgement_and_subjective_perception,2020.2.10,60.04668822186134,
1,0.9,training,1000,,,,,,0,45,45,45,,,,,,,,,,,,,720.8052752559997,None,f,0.8003027849990758,720.9052612779997,None,720.3051685770006,720.7220674920009,721.7386939999997,722.2391535879997,721.7386939999997,None,,,,,,7,001,exponential,bryg,0.35-0.75,2021_May_18_1550,color_judgement_and_subjective_perception,2020.2.10,60.04668822186134,
0,0.9,training,1000,,,,,,0,46,46,46,,,,,,,,,,,,,722.8390150369996,None,d,0.5266554780009756,722.9390208660006,None,722.3389111739998,722.7557534050011,723.488861486001,723.9892660229998,723.488861486001,None,,,,,,7,001,exponential,bryg,0.35-0.75,2021_May_18_1550,color_judgement_and_subjective_perception,2020.2.10,60.04668822186134,
3,0.9,training,1000,,,,,,0,47,47,47,,,,,,,,,,,,,724.5893652129998,None,k,0.5602740239992272,724.6893658410008,None,724.0891643940013,724.5058684720007,725.273539789001,725.7736034190002,725.273539789001,None,,,,,,7,001,exponential,bryg,0.35-0.75,2021_May_18_1550,color_judgement_and_subjective_perception,2020.2.10,60.04668822186134,
0,0.9,training,1000,,,,,,0,48,48,48,,,,,,,,,,,,,726.3736587380008,None,d,0.5119915060004132,726.4737156820011,None,725.8735418960005,726.290437474001,727.0070291430002,727.5073088999998,727.0070291430002,None,,,,,,7,001,exponential,bryg,0.35-0.75,2021_May_18_1550,color_judgement_and_subjective_perception,2020.2.10,60.04668822186134,
1,0.9,training,1000,,,,,,0,49,49,49,,,,,,,,,,,,,728.1074289940007,None,f,0.8821479369998997,728.207473429,None,727.6071904370001,728.0239714620002,729.1072937460012,729.6075179970012,729.1072937460012,None,,,,,,7,001,exponential,bryg,0.35-0.75,2021_May_18_1550,color_judgement_and_subjective_perception,2020.2.10,60.04668822186134,
3,0.9,training,1000,,,,,,0,50,50,50,,,,,,,,,,,,,730.1917953949996,None,k,0.3018438180006342,730.2918330459997,None,729.707555930001,730.1086009870014,730.6251253570008,731.1251305250007,730.6251253570008,None,,,,,,7,001,exponential,bryg,0.35-0.75,2021_May_18_1550,color_judgement_and_subjective_perception,2020.2.10,60.04668822186134,
0,0.9,training,1000,,,,,,0,51,51,51,,,,,,,,,,,,,731.7252865890005,None,d,0.4563917420000507,731.8252973819999,None,731.2253310010001,731.6420296449996,732.3085875720008,732.8089119590004,732.3085875720008,None,,,,,,7,001,exponential,bryg,0.35-0.75,2021_May_18_1550,color_judgement_and_subjective_perception,2020.2.10,60.04668822186134,
3,0.9,training,1000,,,,,,0,52,52,52,,,,,,,,,,,,,733.4089310750005,None,k,0.6447693330010225,733.508906903,None,732.908827872001,733.325445161001,734.1756445709998,734.6758806819998,734.1756445709998,None,,,,,,7,001,exponential,bryg,0.35-0.75,2021_May_18_1550,color_judgement_and_subjective_perception,2020.2.10,60.04668822186134,
3,0.9,training,1000,,,,,,0,53,53,53,,,,,,,,,,,,,735.2600700880012,None,k,0.7134934780006006,735.3601826350005,None,734.77582755,735.1767536059997,736.0933579909997,736.593490528001,736.0933579909997,None,,,,,,7,001,exponential,bryg,0.35-0.75,2021_May_18_1550,color_judgement_and_subjective_perception,2020.2.10,60.04668822186134,
2,0.9,training,1000,,,,,,0,54,54,54,,,,,,,,,,,,,737.1935084100005,None,j,0.4036987380004575,737.293937157001,None,736.6935132210001,737.1103321190003,737.7269296920003,738.2270809870006,737.7269296920003,None,,,,,,7,001,exponential,bryg,0.35-0.75,2021_May_18_1550,color_judgement_and_subjective_perception,2020.2.10,60.04668822186134,
1,0.9,training,1000,,,,,,0,55,55,55,,,,,,,,,,,,,738.827138521001,None,None,-1,738.9271819410005,None,738.3270566560004,738.7439306790002,739.8439111120006,740.3283408320003,739.8439111120006,None,,,,,,7,001,exponential,bryg,0.35-0.75,2021_May_18_1550,color_judgement_and_subjective_perception,2020.2.10,60.04668822186134,
2,0.9,training,1000,,,,,,0,56,56,56,,,,,,,,,,,,,740.9283372320006,None,None,-1,741.028462915001,None,740.4283574740002,740.8450630770003,741.9452146889998,742.4453858790002,741.9452146889998,None,,,,,,7,001,exponential,bryg,0.35-0.75,2021_May_18_1550,color_judgement_and_subjective_perception,2020.2.10,60.04668822186134,
2,0.9,training,1000,,,,,,0,57,57,57,,,,,,,,,,,,,743.0453158700002,None,j,0.3523677850007516,743.1452985720007,None,742.545354336,742.9621792470007,743.5285654170002,744.0287387810004,743.5285654170002,None,,,,,,7,001,exponential,bryg,0.35-0.75,2021_May_18_1550,color_judgement_and_subjective_perception,2020.2.10,60.04668822186134,
3,0.9,training,1000,,,,,,0,58,58,58,,,,,,,,,,,,,744.6290272400001,None,k,0.4489237639991188,744.7287699460012,None,744.1288539140005,744.5455502830009,745.1963969580011,745.6966885540005,745.1963969580011,None,,,,,,7,001,exponential,bryg,0.35-0.75,2021_May_18_1550,color_judgement_and_subjective_perception,2020.2.10,60.04668822186134,
0,0.9,training,1000,,,,,,0,59,59,59,,,,,,,,,,,,,746.2965587540002,None,d,0.3890731230003439,746.3966128330012,None,745.7965282069999,746.2133728160006,746.8133236530011,747.3134981149997,746.8133236530011,None,,,,,,7,001,exponential,bryg,0.35-0.75,2021_May_18_1550,color_judgement_and_subjective_perception,2020.2.10,60.04668822186134,
3,0.9,training,1000,,,,,,0,60,60,60,,,,,,,,,,,,,747.9136012030012,None,j,0.6999366409982031,748.0136990370011,None,747.4134324879997,747.8303882090004,748.7300953949998,749.2305111850001,748.7300953949998,None,,,,,,7,001,exponential,bryg,0.35-0.75,2021_May_18_1550,color_judgement_and_subjective_perception,2020.2.10,60.04668822186134,
1,0.9,training,1000,,,,,,0,61,61,61,,,,,,,,,,,,,749.8306022209999,None,f,0.3032129099992744,749.930465935,None,749.3304235739997,749.7471392870011,750.2645891089996,750.7648867959997,750.2645891089996,None,,,,,,7,001,exponential,bryg,0.35-0.75,2021_May_18_1550,color_judgement_and_subjective_perception,2020.2.10,60.04668822186134,
0,0.9,training,1000,,,,,,0,62,62,62,,,,,,,,,,,,,751.3648986730004,None,d,0.5768835010003386,751.4647893649999,None,750.8647337250004,751.281558654,752.0648814350006,752.5652608580003,752.0648814350006,None,,,,,,7,001,exponential,bryg,0.35-0.75,2021_May_18_1550,color_judgement_and_subjective_perception,2020.2.10,60.04668822186134,
1,0.9,training,1000,,,,,,0,63,63,63,,,,,,,,,,,,,753.1651414509997,None,None,-1,753.2651417540001,None,752.6651946590009,753.0819698240011,754.1819337810011,754.682101679,754.1819337810011,None,,,,,,7,001,exponential,bryg,0.35-0.75,2021_May_18_1550,color_judgement_and_subjective_perception,2020.2.10,60.04668822186134,
0,0.9,training,1000,,,,,,0,64,64,64,,,,,,,,,,,,,755.2665200829997,None,d,0.5871353539987467,755.3665219970007,None,754.7820964479997,755.1830695400004,755.9828679420007,756.483106478001,755.9828679420007,None,,,,,,7,001,exponential,bryg,0.35-0.75,2021_May_18_1550,color_judgement_and_subjective_perception,2020.2.10,60.04668822186134,
3,0.9,training,1000,,,,,,0,65,65,65,,,,,,,,,,,,,757.0833384540001,None,k,0.5621992409996892,757.1833866489997,None,756.582999788001,756.9999922370007,757.7666408370005,758.2667626380007,757.7666408370005,None,,,,,,7,001,exponential,bryg,0.35-0.75,2021_May_18_1550,color_judgement_and_subjective_perception,2020.2.10,60.04668822186134,
3,0.9,training,1000,,,,,,0,66,66,66,,,,,,,,,,,,,758.8669339260014,None,k,0.5147947360001126,758.9668899260014,None,758.3667885560008,758.783442543001,759.5001835370003,759.984791326,759.5001835370003,None,,,,,,7,001,exponential,bryg,0.35-0.75,2021_May_18_1550,color_judgement_and_subjective_perception,2020.2.10,60.04668822186134,
2,0.9,training,1000,,,,,,0,67,67,67,,,,,,,,,,,,,760.5846210680011,None,j,0.524929183000495,760.6847361600012,None,760.0848298740002,760.501295299,761.2345661550007,761.7347870820013,761.2345661550007,None,,,,,,7,001,exponential,bryg,0.35-0.75,2021_May_18_1550,color_judgement_and_subjective_perception,2020.2.10,60.04668822186134,
1,0.9,training,1000,,,,,,0,68,68,68,,,,,,,,,,,,,762.3350921860001,None,f,0.6306634840002516,762.4349817560014,None,761.8348189090011,762.2516029939998,763.0850236770002,763.5851114899997,763.0850236770002,None,,,,,,7,001,exponential,bryg,0.35-0.75,2021_May_18_1550,color_judgement_and_subjective_perception,2020.2.10,60.04668822186134,
3,0.9,training,1000,,,,,,0,69,69,69,,,,,,,,,,,,,764.1851713570013,None,k,0.4923378669991507,764.2853202189999,None,763.6850558060014,764.1019007690011,764.8017803580005,765.2861460310014,764.8017803580005,None,,,,,,7,001,exponential,bryg,0.35-0.75,2021_May_18_1550,color_judgement_and_subjective_perception,2020.2.10,60.04668822186134,
2,0.9,training,1000,,,,,,0,70,70,70,,,,,,,,,,,,,765.8861774670004,None,j,0.6314119809994736,765.9862563839997,None,765.3859850710014,765.8027625110008,766.6363253500003,767.1364487050014,766.6363253500003,None,,,,,,7,001,exponential,bryg,0.35-0.75,2021_May_18_1550,color_judgement_and_subjective_perception,2020.2.10,60.04668822186134,
1,0.9,training,1000,,,,,,0,71,71,71,,,,,,,,,,,,,767.7365944490011,None,f,0.6929323169988493,767.8367357490006,None,767.2365088860006,767.653411618001,768.5532365170002,769.0534415830007,768.5532365170002,None,,,,,,7,001,exponential,bryg,0.35-0.75,2021_May_18_1550,color_judgement_and_subjective_perception,2020.2.10,60.04668822186134,
1,0.9,training,1000,,,,,,0,72,72,72,,,,,,,,,,,,,769.653564745,None,f,0.376123591000578,769.7535545570008,None,769.1533387609998,769.5701846789998,770.1542632460005,770.654379429001,770.1542632460005,None,,,,,,7,001,exponential,bryg,0.35-0.75,2021_May_18_1550,color_judgement_and_subjective_perception,2020.2.10,60.04668822186134,
2,0.9,training,1000,,,,,,0,73,73,73,,,,,,,,,,,,,771.2546676849997,None,j,0.5272146840015921,771.3545737760014,None,770.7544796399998,771.1713126520008,771.9045641470002,772.4047847399997,771.9045641470002,None,,,,,,7,001,exponential,bryg,0.35-0.75,2021_May_18_1550,color_judgement_and_subjective_perception,2020.2.10,60.04668822186134,
1,0.9,training,1000,,,,,,0,74,74,74,,,,,,,,,,,,,773.0048283160013,None,f,0.46479698000075587,773.1048848540013,None,772.5047879100002,772.9213674809998,773.5882032070003,774.0884568399997,773.5882032070003,None,,,,,,7,001,exponential,bryg,0.35-0.75,2021_May_18_1550,color_judgement_and_subjective_perception,2020.2.10,60.04668822186134,
0,0.9,training,1000,,,,,,0,75,75,75,,,,,,,,,,,,,774.6885830840001,None,d,0.4291228459987906,774.7885196820007,None,774.1883047240008,774.6049324770011,775.2393401270001,775.7394280450007,775.2393401270001,None,,,,,,7,001,exponential,bryg,0.35-0.75,2021_May_18_1550,color_judgement_and_subjective_perception,2020.2.10,60.04668822186134,
0,0.9,training,1000,,,,,,0,76,76,76,,,,,,,,,,,,,776.3394914729997,None,d,0.4662027920003311,776.4394745110003,None,775.8391441160002,776.2560318870001,776.9228860530002,777.4229407060011,776.9228860530002,None,,,,,,7,001,exponential,bryg,0.35-0.75,2021_May_18_1550,color_judgement_and_subjective_perception,2020.2.10,60.04668822186134,
1,0.9,training,1000,,,,,,0,77,77,77,,,,,,,,,,,,,778.0231976960004,None,f,0.47062155499952496,778.123065795,None,777.5229858929997,777.9399549660011,778.6229832650006,779.1231925030006,778.6229832650006,None,,,,,,7,001,exponential,bryg,0.35-0.75,2021_May_18_1550,color_judgement_and_subjective_perception,2020.2.10,60.04668822186134,
0,0.9,training,1000,,,,,,0,78,78,78,,,,,,,,,,,,,779.7232417080013,None,d,0.49838388600073813,779.823294455,None,779.2231923110012,779.6401019519999,780.3409871430013,780.8409234629999,780.3409871430013,None,,,,,,7,001,exponential,bryg,0.35-0.75,2021_May_18_1550,color_judgement_and_subjective_perception,2020.2.10,60.04668822186134,
2,0.9,training,1000,,,,,,0,79,79,79,,,,,,,,,,,,,781.4411079490001,None,j,0.4125352669998392,781.5411487370002,None,780.9408882040007,781.3577673939999,781.9744991300013,782.4746570400002,781.9744991300013,None,,,,,,7,001,exponential,bryg,0.35-0.75,2021_May_18_1550,color_judgement_and_subjective_perception,2020.2.10,60.04668822186134,
3,0.9,training,1000,,,,,,0,80,80,80,,,,,,,,,,,,,783.0746144559998,None,k,0.3309475519999978,783.1747481290004,None,782.5746564460005,782.9913110670004,783.5245824949998,784.0248177080011,783.5245824949998,None,,,,,,7,001,exponential,bryg,0.35-0.75,2021_May_18_1550,color_judgement_and_subjective_perception,2020.2.10,60.04668822186134,
1,0.9,training,1000,,,,,,0,81,81,81,,,,,,,,,,,,,784.6248890930001,None,f,0.45276451500103576,784.7248937269997,None,784.1248544310001,784.5415251040013,785.2090902729997,785.7093479350006,785.2090902729997,None,,,,,,7,001,exponential,bryg,0.35-0.75,2021_May_18_1550,color_judgement_and_subjective_perception,2020.2.10,60.04668822186134,
3,0.9,training,1000,,,,,,0,82,82,82,,,,,,,,,,,,,786.3094282260008,None,k,0.5284632880011486,786.409212939001,None,785.8091961990012,786.2258647870003,786.9593763949997,787.4596621470009,786.9593763949997,None,,,,,,7,001,exponential,bryg,0.35-0.75,2021_May_18_1550,color_judgement_and_subjective_perception,2020.2.10,60.04668822186134,
2,0.9,training,1000,,,,,,0,83,83,83,,,,,,,,,,,,,788.0597050720007,None,j,0.3139583859992854,788.1597197460014,None,787.5595134100004,787.9763644129998,788.4929924090011,788.9929248410008,788.4929924090011,None,,,,,,7,001,exponential,bryg,0.35-0.75,2021_May_18_1550,color_judgement_and_subjective_perception,2020.2.10,60.04668822186134,
1,0.9,training,1000,,,,,,0,84,84,84,,,,,,,,,,,,,789.5931294460006,None,d,0.3804540389992326,789.6932419430013,None,789.0929367330009,789.509763258,790.0940991469997,790.5940541110012,790.0940991469997,None,,,,,,7,001,exponential,bryg,0.35-0.75,2021_May_18_1550,color_judgement_and_subjective_perception,2020.2.10,60.04668822186134,
2,0.9,training,1000,,,,,,0,85,85,85,,,,,,,,,,,,,791.1941006950001,None,k,0.6754794650005351,791.2942002020009,None,790.6940474319999,791.1108930930004,791.9940965630012,792.4944796300006,791.9940965630012,None,,,,,,7,001,exponential,bryg,0.35-0.75,2021_May_18_1550,color_judgement_and_subjective_perception,2020.2.10,60.04668822186134,
3,0.9,training,1000,,,,,,0,86,86,86,,,,,,,,,,,,,793.0945744850014,None,k,0.5991026279989455,793.1945756690002,None,792.59446776,793.0110941410003,793.810990639,794.3114543310003,793.810990639,None,,,,,,7,001,exponential,bryg,0.35-0.75,2021_May_18_1550,color_judgement_and_subjective_perception,2020.2.10,60.04668822186134,
0,0.9,training,1000,,,,,,0,87,87,87,,,,,,,,,,,,,794.9115172860002,None,d,0.6379970779998985,794.9957317700009,None,794.411399949,794.8281263740009,795.6622838710009,796.1623294210003,795.6622838710009,None,,,,,,7,001,exponential,bryg,0.35-0.75,2021_May_18_1550,color_judgement_and_subjective_perception,2020.2.10,60.04668822186134,
2,0.9,training,1000,,,,,,0,88,88,88,,,,,,,,,,,,,796.7625672209997,None,j,0.28315332400052284,796.8625395790004,None,796.2624846070012,796.6791424470011,797.1625333740012,797.6626949600013,797.1625333740012,None,,,,,,7,001,exponential,bryg,0.35-0.75,2021_May_18_1550,color_judgement_and_subjective_perception,2020.2.10,60.04668822186134,
0,0.9,training,1000,,,,,,0,89,89,89,,,,,,,,,,,,,798.2627782729996,None,d,0.41480882100040617,798.3628827850007,None,797.762756039001,798.1792780320011,798.7960445940007,799.2961240050008,798.7960445940007,None,,,,,,7,001,exponential,bryg,0.35-0.75,2021_May_18_1550,color_judgement_and_subjective_perception,2020.2.10,60.04668822186134,
0,0.9,training,1000,,,,,,0,90,90,90,,,,,,,,,,,,,799.8963228749999,None,d,0.3647409390014218,799.9809482660003,None,799.3961714270008,799.813145389,800.3639926360011,800.8641744910001,800.3639926360011,None,,,,,,7,001,exponential,bryg,0.35-0.75,2021_May_18_1550,color_judgement_and_subjective_perception,2020.2.10,60.04668822186134,
1,0.9,training,1000,,,,,,0,91,91,91,,,,,,,,,,,,,801.4640414389996,None,f,0.3655539729988959,801.5641004900008,None,800.9639026410005,801.3807771850006,801.9473319900007,802.4476189010002,801.9473319900007,None,,,,,,7,001,exponential,bryg,0.35-0.75,2021_May_18_1550,color_judgement_and_subjective_perception,2020.2.10,60.04668822186134,
2,0.9,training,1000,,,,,,0,92,92,92,,,,,,,,,,,,,803.0476423689997,None,k,0.3500127280003653,803.1476187099997,None,802.5476823580011,802.9643540150009,803.5142672319998,804.014389846001,803.5142672319998,None,,,,,,7,001,exponential,bryg,0.35-0.75,2021_May_18_1550,color_judgement_and_subjective_perception,2020.2.10,60.04668822186134,
0,0.9,training,1000,,,,,,0,93,93,93,,,,,,,,,,,,,804.6147165420007,None,d,0.5831620060016576,804.7144908090013,None,804.1144946639997,804.5313505060003,805.315360949,805.8155411719999,805.315360949,None,,,,,,7,001,exponential,bryg,0.35-0.75,2021_May_18_1550,color_judgement_and_subjective_perception,2020.2.10,60.04668822186134,
2,0.9,training,1000,,,,,,0,94,94,94,,,,,,,,,,,,,806.4156220880013,None,k,0.6539051140007359,806.515721875001,None,805.9154792040008,806.3323510210012,807.1990742220005,807.6993364520004,807.1990742220005,None,,,,,,7,001,exponential,bryg,0.35-0.75,2021_May_18_1550,color_judgement_and_subjective_perception,2020.2.10,60.04668822186134,
3,0.9,training,1000,,,,,,0,95,95,95,,,,,,,,,,,,,808.2993921850011,None,k,0.7223486279999634,808.3993368240008,None,807.7992210419998,808.215971986001,809.1492944790007,809.649483829,809.1492944790007,None,,,,,,7,001,exponential,bryg,0.35-0.75,2021_May_18_1550,color_judgement_and_subjective_perception,2020.2.10,60.04668822186134,
1,0.35,testing,1000,1,,,,,,,,,0,0,0,0,0,0,0,1,,,,,871.0862070710009,None,None,-1,871.1862304710012,None,870.5883942020009,871.0028775460014,872.1028749050001,872.6030826730002,872.1028749050001,None,23,8,0,,,7,001,exponential,bryg,0.35-0.75,2021_May_18_1550,color_judgement_and_subjective_perception,2020.2.10,60.04668822186134,
3,0.35,testing,1000,1,,,,,,,,,0,0,0,0,0,1,1,3,,,,,873.2030647680003,None,None,-1,873.3031137910002,None,872.7031455840006,873.1198883779998,874.2198670920006,874.7199476780006,874.2198670920006,None,0,38,0,,,7,001,exponential,bryg,0.35-0.75,2021_May_18_1550,color_judgement_and_subjective_perception,2020.2.10,60.04668822186134,
2,0.35,testing,1000,1,,,,,,,,,0,0,0,0,0,2,2,2,,,,,875.3044381030013,None,k,0.34124623000025167,875.4044335159997,None,874.8200386730005,875.2209970000004,875.7707917950011,876.2709796290001,875.7707917950011,None,23,23,0,,,7,001,exponential,bryg,0.35-0.75,2021_May_18_1550,color_judgement_and_subjective_perception,2020.2.10,60.04668822186134,
0,0.35,testing,1000,1,,,,,,,,,0,0,0,0,0,3,3,0,,,,,876.8711960870005,None,d,0.6864300619999995,876.9712369480003,None,876.3709324709998,876.7879553920011,877.6879633930002,878.188095341,877.6879633930002,None,0,0,30,,,7,001,exponential,bryg,0.35-0.75,2021_May_18_1550,color_judgement_and_subjective_perception,2020.2.10,60.04668822186134,
3,0.35,testing,1000,1,,,,,,,,,0,0,0,0,1,0,4,3,,,,,878.7880996020012,None,k,0.5216191969993815,878.8881348920004,None,878.2880463649999,878.7048443610001,879.4381179390002,879.9383243600005,879.4381179390002,None,0,42,0,,,7,001,exponential,bryg,0.35-0.75,2021_May_18_1550,color_judgement_and_subjective_perception,2020.2.10,60.04668822186134,
0,0.35,testing,1000,1,,,,,,,,,0,0,0,0,1,1,5,0,,,,,880.5226200150009,None,d,0.6271790310001961,880.6224963420009,None,880.0225414140004,880.4393371620008,881.2724953939996,881.7727653700003,881.2724953939996,None,0,0,31,,,7,001,exponential,bryg,0.35-0.75,2021_May_18_1550,color_judgement_and_subjective_perception,2020.2.10,60.04668822186134,
2,0.35,testing,1000,1,,,,,,,,,0,0,0,0,1,2,6,2,,,,,882.3729692190009,None,d,0.6887457909997465,882.4729338690013,None,881.8725772369999,882.2895790060011,883.1895160000004,883.6897501500007,883.1895160000004,None,24,24,0,,,7,001,exponential,bryg,0.35-0.75,2021_May_18_1550,color_judgement_and_subjective_perception,2020.2.10,60.04668822186134,
1,0.35,testing,1000,1,,,,,,,,,0,0,0,0,1,3,7,1,,,,,884.2898228960003,None,k,0.5957079639993026,884.389898278001,None,883.7896242900006,884.2064814759997,885.0004977429999,885.4908217890006,885.0004977429999,None,25,8,0,,,7,001,exponential,bryg,0.35-0.75,2021_May_18_1550,color_judgement_and_subjective_perception,2020.2.10,60.04668822186134,
1,0.35,testing,1000,1,,,,,,,,,0,0,0,0,2,0,8,1,,,,,886.0909388,None,d,0.6426909930014517,886.1909755010001,None,885.590720739001,886.0076032329998,886.857586342001,887.3579007000008,886.857586342001,None,27,9,0,,,7,001,exponential,bryg,0.35-0.75,2021_May_18_1550,color_judgement_and_subjective_perception,2020.2.10,60.04668822186134,
3,0.35,testing,1000,1,,,,,,,,,0,0,0,0,2,1,9,3,,,,,887.9578452880014,None,k,0.7677100199998677,888.0579597800006,None,887.4577309550004,887.8745800840006,888.8578288839999,889.3581150460013,888.8578288839999,None,0,42,0,,,7,001,exponential,bryg,0.35-0.75,2021_May_18_1550,color_judgement_and_subjective_perception,2020.2.10,60.04668822186134,
2,0.35,testing,1000,1,,,,,,,,,0,0,0,0,2,2,10,2,,,,,889.958225325001,None,d,0.6311811780014978,890.0424752930012,None,889.4579794800011,889.874793387,890.6923912969996,891.1925269000003,890.6923912969996,None,25,25,0,,,7,001,exponential,bryg,0.35-0.75,2021_May_18_1550,color_judgement_and_subjective_perception,2020.2.10,60.04668822186134,
0,0.35,testing,1000,1,,,,,,,,,0,0,0,0,2,3,11,0,,,,,891.7925710660002,None,f,0.6130431919991679,891.8926176229998,None,891.2924354120005,891.7094566120013,892.526059142001,893.026285983,892.526059142001,None,0,0,30,,,7,001,exponential,bryg,0.35-0.75,2021_May_18_1550,color_judgement_and_subjective_perception,2020.2.10,60.04668822186134,
0,0.35,testing,1000,1,,,,,,,,,0,0,0,0,3,0,12,0,,,,,893.6261881660012,None,k,0.3314061019991641,893.7262872219999,None,893.1261964180012,893.5428874600002,894.076111841001,894.5765064120005,894.076111841001,None,0,0,30,,,7,001,exponential,bryg,0.35-0.75,2021_May_18_1550,color_judgement_and_subjective_perception,2020.2.10,60.04668822186134,
3,0.35,testing,1000,1,,,,,,,,,0,0,0,0,3,1,13,3,,,,,895.1606780090005,None,j,0.2930492180003057,895.2606226910011,None,894.6763854649998,895.0772762570014,895.5772045920003,896.0772948150006,895.5772045920003,None,0,43,0,,,7,001,exponential,bryg,0.35-0.75,2021_May_18_1550,color_judgement_and_subjective_perception,2020.2.10,60.04668822186134,
1,0.35,testing,1000,1,,,,,,,,,0,0,0,0,3,2,14,1,,,,,896.6775607580003,None,f,0.8403967699996429,896.7772728360014,None,896.1772410110007,896.5940769839999,897.644222066001,898.1443211510013,897.644222066001,None,32,11,0,,,7,001,exponential,bryg,0.35-0.75,2021_May_18_1550,color_judgement_and_subjective_perception,2020.2.10,60.04668822186134,
2,0.35,testing,1000,1,,,,,,,,,0,0,0,0,3,3,15,2,,,,,898.7445411810004,None,j,0.6450876189992414,898.8445910379996,None,898.2444041510007,898.6610896889997,899.5111563530008,900.0027375040008,899.5111563530008,None,29,29,0,,,7,001,exponential,bryg,0.35-0.75,2021_May_18_1550,color_judgement_and_subjective_perception,2020.2.10,60.04668822186134,
1,0.35,testing,1000,1,,,,,,,,,0,0,0,0,4,0,16,1,,,,,900.5955674560009,None,d,0.7380642319985782,900.6956197430009,None,900.0955341850004,900.5122153720004,901.4622156180012,901.962493553001,901.4622156180012,None,31,10,0,,,7,001,exponential,bryg,0.35-0.75,2021_May_18_1550,color_judgement_and_subjective_perception,2020.2.10,60.04668822186134,
3,0.35,testing,1000,1,,,,,,,,,0,0,0,0,4,1,17,3,,,,,902.5626863910002,None,k,0.8190441530005046,902.6626376240001,None,902.0624540560002,902.479425087,903.5124451250012,904.0126482590003,903.5124451250012,None,0,40,0,,,7,001,exponential,bryg,0.35-0.75,2021_May_18_1550,color_judgement_and_subjective_perception,2020.2.10,60.04668822186134,
2,0.35,testing,1000,1,,,,,,,,,0,0,0,0,4,2,18,2,,,,,904.6129048769999,None,d,0.6166153869999107,904.7130628470004,None,904.1126797050001,904.5295337240004,905.3469034660011,905.8472301780002,905.3469034660011,None,27,27,0,,,7,001,exponential,bryg,0.35-0.75,2021_May_18_1550,color_judgement_and_subjective_perception,2020.2.10,60.04668822186134,
0,0.35,testing,1000,1,,,,,,,,,0,0,0,0,4,3,19,0,,,,,906.4473337569998,None,None,-1,906.547399000001,None,905.9470170670011,906.3638896989996,907.4640227950003,907.9643055020006,907.4640227950003,None,0,0,28,,,7,001,exponential,bryg,0.35-0.75,2021_May_18_1550,color_judgement_and_subjective_perception,2020.2.10,60.04668822186134,
1,0.35,testing,1000,1,,,,,,,,,0,0,0,0,5,0,20,1,,,,,908.5643422530011,None,None,-1,908.6642871780004,None,908.064156814,908.4808275530013,909.580919166001,910.0654860880004,909.580919166001,None,30,10,0,,,7,001,exponential,bryg,0.35-0.75,2021_May_18_1550,color_judgement_and_subjective_perception,2020.2.10,60.04668822186134,
0,0.35,testing,1000,1,,,,,,,,,0,0,0,0,5,1,21,0,,,,,910.665463872001,None,d,0.5242372459997569,910.7654249140014,None,910.1653608249999,910.5821855020004,911.3152975520006,911.8156705230012,911.3152975520006,None,0,0,31,,,7,001,exponential,bryg,0.35-0.75,2021_May_18_1550,color_judgement_and_subjective_perception,2020.2.10,60.04668822186134,
2,0.35,testing,1000,1,,,,,,,,,0,0,0,0,5,2,22,2,,,,,912.4158229090008,None,f,0.7898383589999867,912.5158461560004,None,911.9155950490003,912.3324581200013,913.3324095750013,913.8325711590005,913.3324095750013,None,28,28,0,,,7,001,exponential,bryg,0.35-0.75,2021_May_18_1550,color_judgement_and_subjective_perception,2020.2.10,60.04668822186134,
3,0.35,testing,1000,1,,,,,,,,,0,0,0,0,5,3,23,3,,,,,914.4327080260009,None,k,0.8528921479992277,914.5327896320014,None,913.9324237350011,914.3493786830004,915.416715071,915.9169342309997,915.416715071,None,0,39,0,,,7,001,exponential,bryg,0.35-0.75,2021_May_18_1550,color_judgement_and_subjective_perception,2020.2.10,60.04668822186134,
3,0.35,testing,1000,1,,,,,,,,,0,0,0,0,6,0,24,3,,,,,916.5170470390003,None,k,0.7045243749998917,916.617170562,None,916.0170285690001,916.4338462409996,917.3504082050003,917.850841847001,917.3504082050003,None,0,37,0,,,7,001,exponential,bryg,0.35-0.75,2021_May_18_1550,color_judgement_and_subjective_perception,2020.2.10,60.04668822186134,
0,0.35,testing,1000,1,,,,,,,,,0,0,0,0,6,1,25,0,,,,,918.4508355039998,None,d,0.5629504419994191,918.5506963759999,None,917.9505611990007,918.3674943860005,919.1340247429998,919.6343031750002,919.1340247429998,None,0,0,28,,,7,001,exponential,bryg,0.35-0.75,2021_May_18_1550,color_judgement_and_subjective_perception,2020.2.10,60.04668822186134,
2,0.35,testing,1000,1,,,,,,,,,0,0,0,0,6,2,26,2,,,,,920.2185840120001,None,None,-1,920.3183801590003,None,919.734198528,920.135217897001,921.2351227449999,921.7354439400006,921.2351227449999,None,27,27,0,,,7,001,exponential,bryg,0.35-0.75,2021_May_18_1550,color_judgement_and_subjective_perception,2020.2.10,60.04668822186134,
1,0.35,testing,1000,1,,,,,,,,,0,0,0,0,6,3,27,1,,,,,922.3355515090007,None,f,0.5900852139984636,922.435586773001,None,921.8352977300001,922.2523374789998,923.0522264840001,923.552371922,923.0522264840001,None,28,9,0,,,7,001,exponential,bryg,0.35-0.75,2021_May_18_1550,color_judgement_and_subjective_perception,2020.2.10,60.04668822186134,
0,0.35,testing,1000,1,,,,,,,,,0,0,0,0,7,0,28,0,,,,,924.1524461380013,None,d,0.7172328010001365,924.2523991200014,None,923.6519229109999,924.0691557810005,925.001074455,925.4868874370004,925.001074455,None,0,0,24,,,7,001,exponential,bryg,0.35-0.75,2021_May_18_1550,color_judgement_and_subjective_perception,2020.2.10,60.04668822186134,
2,0.35,testing,1000,1,,,,,,,,,0,0,0,0,7,1,29,2,,,,,926.0868808570012,None,None,-1,926.1868695070007,None,925.5867557600013,926.0035456300011,927.1035869040006,927.6038231380007,927.1035869040006,None,25,25,0,,,7,001,exponential,bryg,0.35-0.75,2021_May_18_1550,color_judgement_and_subjective_perception,2020.2.10,60.04668822186134,
1,0.35,testing,1000,1,,,,,,,,,0,0,0,0,7,2,30,1,,,,,928.2039923539996,None,k,0.5457242789998418,928.303963665001,None,927.7038771719999,928.1205028490003,928.8704534780009,929.370752883,928.8704534780009,None,24,8,0,,,7,001,exponential,bryg,0.35-0.75,2021_May_18_1550,color_judgement_and_subjective_perception,2020.2.10,60.04668822186134,
3,0.35,testing,1000,1,,,,,,,,,0,0,0,0,7,3,31,3,,,,,929.9707923860005,None,j,0.6666011039997102,930.0550833760008,None,929.4706575250002,929.8874300879997,930.7382826339999,931.2385429960013,930.7382826339999,None,0,29,0,,,7,001,exponential,bryg,0.35-0.75,2021_May_18_1550,color_judgement_and_subjective_perception,2020.2.10,60.04668822186134,
1,0.35,testing,1000,1,,,,,,,,,0,0,0,0,8,0,32,1,,,,,931.8386385829999,None,d,0.5829063209985179,931.9387459340014,None,931.3384260870007,931.7552027900001,932.5386123980006,933.0388851900007,932.5386123980006,None,25,8,0,,,7,001,exponential,bryg,0.35-0.75,2021_May_18_1550,color_judgement_and_subjective_perception,2020.2.10,60.04668822186134,
2,0.35,testing,1000,1,,,,,,,,,0,0,0,0,8,1,33,2,,,,,933.6388466290009,None,d,0.510764555001515,933.7388312120002,None,933.1387178229998,933.555604389001,934.2722403930002,934.7725132200012,934.2722403930002,None,26,26,0,,,7,001,exponential,bryg,0.35-0.75,2021_May_18_1550,color_judgement_and_subjective_perception,2020.2.10,60.04668822186134,
3,0.35,testing,1000,1,,,,,,,,,0,0,0,0,8,2,34,3,,,,,935.3568312070001,None,k,0.6888556800004153,935.4568088940014,None,934.8724448089997,935.2734043680011,936.1732314140008,936.6733957610013,936.1732314140008,None,0,31,0,,,7,001,exponential,bryg,0.35-0.75,2021_May_18_1550,color_judgement_and_subjective_perception,2020.2.10,60.04668822186134,
0,0.35,testing,1000,1,,,,,,,,,0,0,0,0,8,3,35,0,,,,,937.2734534770007,None,f,0.6357772770006704,937.3738761820005,None,936.7733948290006,937.1903112560012,938.0402636810013,938.5404138670001,938.0402636810013,None,0,0,22,,,7,001,exponential,bryg,0.35-0.75,2021_May_18_1550,color_judgement_and_subjective_perception,2020.2.10,60.04668822186134,
3,0.35,testing,1000,1,,,,,,,,,0,0,0,0,9,0,36,3,,,,,939.1406025699998,None,k,0.8571614679985942,939.2405208649998,None,938.6404386040012,939.0570833889997,940.1247971960001,940.624927113,940.1247971960001,None,0,30,0,,,7,001,exponential,bryg,0.35-0.75,2021_May_18_1550,color_judgement_and_subjective_perception,2020.2.10,60.04668822186134,
0,0.35,testing,1000,1,,,,,,,,,0,0,0,0,9,1,37,0,,,,,941.2250112040001,None,d,0.4846283469996706,941.3250307010003,None,940.7249026150002,941.1415656540012,941.8415750590011,942.3419196190007,941.8415750590011,None,0,0,21,,,7,001,exponential,bryg,0.35-0.75,2021_May_18_1550,color_judgement_and_subjective_perception,2020.2.10,60.04668822186134,
1,0.35,testing,1000,1,,,,,,,,,0,0,0,0,9,2,38,1,,,,,942.9420605680007,None,f,0.4236176880003768,943.0420649300013,None,942.4418409999998,942.8587408550011,943.4919694190012,943.9921836680005,943.4919694190012,None,26,9,0,,,7,001,exponential,bryg,0.35-0.75,2021_May_18_1550,color_judgement_and_subjective_perception,2020.2.10,60.04668822186134,
2,0.35,testing,1000,1,,,,,,,,,0,0,0,0,9,3,39,2,,,,,944.5922232640005,None,j,0.4053946280000673,944.692320735001,None,944.0919972339998,944.5088463000011,945.1263920550009,945.626539365001,945.1263920550009,None,25,25,0,,,7,001,exponential,bryg,0.35-0.75,2021_May_18_1550,color_judgement_and_subjective_perception,2020.2.10,60.04668822186134,
1,0.35,testing,1000,1,,,,,,,,,0,0,0,0,10,0,40,1,,,,,946.2265108800002,None,d,0.6669925149999472,946.326599905,None,945.7264606330009,946.1433801410003,947.0265439440009,947.5268928969999,947.0265439440009,None,23,8,0,,,7,001,exponential,bryg,0.35-0.75,2021_May_18_1550,color_judgement_and_subjective_perception,2020.2.10,60.04668822186134,
3,0.35,testing,1000,1,,,,,,,,,0,0,0,0,10,1,41,3,,,,,948.1268799090012,None,j,0.6067785969989927,948.2269043280012,None,947.6268782480001,948.0436589930014,948.8600784589999,949.3605142680008,948.8600784589999,None,0,24,0,,,7,001,exponential,bryg,0.35-0.75,2021_May_18_1550,color_judgement_and_subjective_perception,2020.2.10,60.04668822186134,
2,0.35,testing,1000,1,,,,,,,,,0,0,0,0,10,2,42,2,,,,,949.960518074,None,d,0.8129964620002283,950.0446961870002,None,949.460363827,949.8771676630004,950.8781626930013,951.378195397001,950.8781626930013,None,23,23,0,,,7,001,exponential,bryg,0.35-0.75,2021_May_18_1550,color_judgement_and_subjective_perception,2020.2.10,60.04668822186134,
0,0.35,testing,1000,1,,,,,,,,,0,0,0,0,10,3,43,0,,,,,951.9783854790003,None,None,-1,952.0783113630005,None,951.478172006,951.8949077430007,952.995030389,953.4952056029997,952.995030389,None,0,0,16,,,7,001,exponential,bryg,0.35-0.75,2021_May_18_1550,color_judgement_and_subjective_perception,2020.2.10,60.04668822186134,
0,0.35,testing,1000,1,,,,,,,,,0,0,0,0,11,0,44,0,,,,,954.0952933130011,None,d,0.5343461440006649,954.19531121,None,953.5951573600014,954.0119231120007,954.7618269390005,955.2463789470003,954.7618269390005,None,0,0,16,,,7,001,exponential,bryg,0.35-0.75,2021_May_18_1550,color_judgement_and_subjective_perception,2020.2.10,60.04668822186134,
1,0.35,testing,1000,1,,,,,,,,,0,0,0,0,11,1,45,1,,,,,955.8463896120011,None,d,0.6152848620004079,955.9464020030009,None,955.3463332280007,955.7629644490007,956.5796612160011,957.0799764800013,956.5796612160011,None,23,8,0,,,7,001,exponential,bryg,0.35-0.75,2021_May_18_1550,color_judgement_and_subjective_perception,2020.2.10,60.04668822186134,
2,0.35,testing,1000,1,,,,,,,,,0,0,0,0,11,2,46,2,,,,,957.6801232480011,None,d,0.6776225609992252,957.7799351730009,None,957.1797042420003,957.5965005910002,958.4797804270002,958.9801977550014,958.4797804270002,None,26,26,0,,,7,001,exponential,bryg,0.35-0.75,2021_May_18_1550,color_judgement_and_subjective_perception,2020.2.10,60.04668822186134,
3,0.35,testing,1000,1,,,,,,,,,0,0,0,0,11,3,47,3,,,,,959.5803216380009,None,None,-1,959.6803371700007,None,959.0799856960002,959.4969955560009,960.5810143630006,961.0813322640006,960.5810143630006,None,0,25,0,,,7,001,exponential,bryg,0.35-0.75,2021_May_18_1550,color_judgement_and_subjective_perception,2020.2.10,60.04668822186134,
2,0.35,testing,1000,1,,,,,,,,,0,0,0,0,12,0,48,2,,,,,961.6813253070013,None,d,0.5322729750005237,961.7813861800005,None,961.1813644230006,961.5981388520013,962.3314171530001,962.8317443010001,962.3314171530001,None,29,29,0,,,7,001,exponential,bryg,0.35-0.75,2021_May_18_1550,color_judgement_and_subjective_perception,2020.2.10,60.04668822186134,
1,0.35,testing,1000,1,,,,,,,,,0,0,0,0,12,1,49,1,,,,,963.431713688,None,k,0.5020282069999666,963.5316559069997,None,962.9315310600014,963.3484079509999,964.064973251001,964.5652130930011,964.064973251001,None,28,9,0,,,7,001,exponential,bryg,0.35-0.75,2021_May_18_1550,color_judgement_and_subjective_perception,2020.2.10,60.04668822186134,
0,0.35,testing,1000,1,,,,,,,,,0,0,0,0,12,2,50,0,,,,,965.1494110849999,None,d,0.4482409459997143,965.2494393640009,None,964.6651502830009,965.0662799220008,965.7159967930002,966.2161615969999,965.7159967930002,None,0,0,19,,,7,001,exponential,bryg,0.35-0.75,2021_May_18_1550,color_judgement_and_subjective_perception,2020.2.10,60.04668822186134,
3,0.35,testing,1000,1,,,,,,,,,0,0,0,0,12,3,51,3,,,,,966.8162854270013,None,k,0.6132213119999506,966.9164479940009,None,966.3161785470002,966.7329674730008,967.5497420470001,968.0499742089996,967.5497420470001,None,0,28,0,,,7,001,exponential,bryg,0.35-0.75,2021_May_18_1550,color_judgement_and_subjective_perception,2020.2.10,60.04668822186134,
2,0.35,testing,1000,1,,,,,,,,,0,0,0,0,13,0,52,2,,,,,968.6500114890005,None,k,0.7876168020011391,968.7500521660004,None,968.1496749610014,968.5665943210006,969.5665292560006,970.0509468330001,969.5665292560006,None,32,32,0,,,7,001,exponential,bryg,0.35-0.75,2021_May_18_1550,color_judgement_and_subjective_perception,2020.2.10,60.04668822186134,
0,0.35,testing,1000,1,,,,,,,,,0,0,0,0,13,1,53,0,,,,,970.650995123,None,d,0.6185753369991289,970.7510619500008,None,970.1510618030006,970.5677792990009,971.4010005250002,971.9013652120011,971.4010005250002,None,0,0,17,,,7,001,exponential,bryg,0.35-0.75,2021_May_18_1550,color_judgement_and_subjective_perception,2020.2.10,60.04668822186134,
3,0.35,testing,1000,1,,,,,,,,,0,0,0,0,13,2,54,3,,,,,972.5014874070002,None,None,-1,972.6015892520008,None,972.0012200870005,972.417939627001,973.5179637820002,974.0180390100013,973.5179637820002,None,0,24,0,,,7,001,exponential,bryg,0.35-0.75,2021_May_18_1550,color_judgement_and_subjective_perception,2020.2.10,60.04668822186134,
1,0.35,testing,1000,1,,,,,,,,,0,0,0,0,13,3,55,1,,,,,974.6184321060009,None,d,0.5311264989995834,974.718555333,None,974.118258845001,974.5349807720013,975.2691946100003,975.7692011920008,975.2691946100003,None,27,9,0,,,7,001,exponential,bryg,0.35-0.75,2021_May_18_1550,color_judgement_and_subjective_perception,2020.2.10,60.04668822186134,
2,0.35,testing,1000,1,,,,,,,,,0,0,0,0,14,0,56,2,,,,,976.3693307120011,None,d,0.5483290690008289,976.4693644609997,None,975.8692537509996,976.2860280880013,977.0361078429996,977.5364228850012,977.0361078429996,None,31,31,0,,,7,001,exponential,bryg,0.35-0.75,2021_May_18_1550,color_judgement_and_subjective_perception,2020.2.10,60.04668822186134,
1,0.35,testing,1000,1,,,,,,,,,0,0,0,0,14,1,57,1,,,,,978.1364165020004,None,None,-1,978.236297196001,None,977.6363056080008,978.0531302470008,979.1529135210003,979.653279438,979.1529135210003,None,30,10,0,,,7,001,exponential,bryg,0.35-0.75,2021_May_18_1550,color_judgement_and_subjective_perception,2020.2.10,60.04668822186134,
0,0.35,testing,1000,1,,,,,,,,,0,0,0,0,14,2,58,0,,,,,980.2377046410002,None,d,0.47209966799891845,980.3375845010014,None,979.7532938149998,980.1542332890003,980.8372728579998,981.3377678590005,980.8372728579998,None,0,0,17,,,7,001,exponential,bryg,0.35-0.75,2021_May_18_1550,color_judgement_and_subjective_perception,2020.2.10,60.04668822186134,
3,0.35,testing,1000,1,,,,,,,,,0,0,0,0,14,3,59,3,,,,,981.9378857770007,None,k,0.7157294930002536,982.0379217230002,None,981.437577480001,981.8543919020012,982.7711148170001,983.2711701670014,982.7711148170001,None,0,24,0,,,7,001,exponential,bryg,0.35-0.75,2021_May_18_1550,color_judgement_and_subjective_perception,2020.2.10,60.04668822186134,
3,0.35,testing,1000,1,,,,,,,,,0,0,0,0,15,0,60,3,,,,,983.8714182380008,None,k,0.718326092001007,983.971330280001,None,983.3712307980004,983.7880973170013,984.7213299760006,985.205876678001,984.7213299760006,None,0,22,0,,,7,001,exponential,bryg,0.35-0.75,2021_May_18_1550,color_judgement_and_subjective_perception,2020.2.10,60.04668822186134,
2,0.35,testing,1000,1,,,,,,,,,0,0,0,0,15,1,61,2,,,,,985.8058058180013,None,d,0.5996068849999574,985.9060395779998,None,985.305610587,985.7224300779999,986.5224058889999,987.0227544810004,986.5224058889999,None,31,31,0,,,7,001,exponential,bryg,0.35-0.75,2021_May_18_1550,color_judgement_and_subjective_perception,2020.2.10,60.04668822186134,
1,0.35,testing,1000,1,,,,,,,,,0,0,0,0,15,2,62,1,,,,,987.6062397570004,None,d,0.5354162069997983,987.7062662440003,None,987.122687735,987.5396557460008,988.2617045530005,988.7396090500006,988.2617045530005,None,28,9,0,,,7,001,exponential,bryg,0.35-0.75,2021_May_18_1550,color_judgement_and_subjective_perception,2020.2.10,60.04668822186134,
0,0.35,testing,1000,1,,,,,,,,,0,0,0,0,15,3,63,0,,,,,989.3396472310014,None,k,0.6099170800007414,989.4397586560008,None,988.8395192540011,989.2564602479997,990.0739574100007,990.5739312860005,990.0739574100007,None,0,0,13,,,7,001,exponential,bryg,0.35-0.75,2021_May_18_1550,color_judgement_and_subjective_perception,2020.2.10,60.04668822186134,
0,0.35,testing,1000,1,,,,,,,,,0,0,0,0,16,0,64,0,,,,,991.1741462790014,None,j,0.5755477069997141,991.2741215200003,None,990.6740876570002,991.0907291410003,991.8740845690008,992.3745886039997,991.8740845690008,None,0,0,13,,,7,001,exponential,bryg,0.35-0.75,2021_May_18_1550,color_judgement_and_subjective_perception,2020.2.10,60.04668822186134,
3,0.35,testing,1000,1,,,,,,,,,0,0,0,0,16,1,65,3,,,,,992.9746221519999,None,j,0.7190592599999945,993.0746192940005,None,992.474459047,992.8912135520004,993.8244446389999,994.3246368880009,993.8244446389999,None,0,22,0,,,7,001,exponential,bryg,0.35-0.75,2021_May_18_1550,color_judgement_and_subjective_perception,2020.2.10,60.04668822186134,
2,0.35,testing,1000,1,,,,,,,,,0,0,0,0,16,2,66,2,,,,,994.9247652909999,None,k,0.45809967600143864,995.0235824640004,None,994.4245259649997,994.8414016940005,995.5087902880005,996.0089185680008,995.5087902880005,None,35,35,0,,,7,001,exponential,bryg,0.35-0.75,2021_May_18_1550,color_judgement_and_subjective_perception,2020.2.10,60.04668822186134,
1,0.35,testing,1000,1,,,,,,,,,0,0,0,0,16,3,67,1,,,,,996.6090497870009,None,None,-1,996.7091268599997,None,996.1089631539999,996.5256592210008,997.6258052310004,998.126059436001,997.6258052310004,None,34,11,0,,,7,001,exponential,bryg,0.35-0.75,2021_May_18_1550,color_judgement_and_subjective_perception,2020.2.10,60.04668822186134,
3,0.35,testing,1000,1,,,,,,,,,0,0,0,0,17,0,68,3,,,,,998.7261267680005,None,d,0.4235768630005623,998.8261019230013,None,998.226001641,998.6427760100014,999.2760271580009,999.7762101330009,999.2760271580009,None,0,24,0,,,7,001,exponential,bryg,0.35-0.75,2021_May_18_1550,color_judgement_and_subjective_perception,2020.2.10,60.04668822186134,
0,0.35,testing,1000,1,,,,,,,,,0,0,0,0,17,1,69,0,,,,,1000.3605299339997,None,None,-1,1000.4603488470002,None,999.8763986710001,1000.2771583459999,1001.3770544580002,1001.8773407200006,1001.3770544580002,None,0,0,17,,,7,001,exponential,bryg,0.35-0.75,2021_May_18_1550,color_judgement_and_subjective_perception,2020.2.10,60.04668822186134,
2,0.35,testing,1000,1,,,,,,,,,0,0,0,0,17,2,70,2,,,,,1002.4776285280004,None,k,0.47998389799977303,1002.5776660800002,None,1001.9772856670006,1002.3943136260004,1003.0775144500003,1003.5777122630006,1003.0775144500003,None,40,40,0,,,7,001,exponential,bryg,0.35-0.75,2021_May_18_1550,color_judgement_and_subjective_perception,2020.2.10,60.04668822186134,
1,0.35,testing,1000,1,,,,,,,,,0,0,0,0,17,3,71,1,,,,,1004.1778177190008,None,d,0.5798437989997183,1004.2778324290011,None,1003.6776019860008,1004.0943538930005,1004.877766171001,1005.3623107780004,1004.877766171001,None,39,13,0,,,7,001,exponential,bryg,0.35-0.75,2021_May_18_1550,color_judgement_and_subjective_perception,2020.2.10,60.04668822186134,
0,0.35,testing,1000,1,,,,,,,,,0,0,0,0,18,0,72,0,,,,,1005.9622513680006,None,f,0.30754814699866984,1006.0621394450009,None,1005.4620554430003,1005.8786931260001,1006.3955070860011,1006.8956908640012,1006.3955070860011,None,0,0,21,,,7,001,exponential,bryg,0.35-0.75,2021_May_18_1550,color_judgement_and_subjective_perception,2020.2.10,60.04668822186134,
2,0.35,testing,1000,1,,,,,,,,,0,0,0,0,18,1,73,2,,,,,1007.4959162970008,None,j,0.0859255449995544,1007.5957543760014,None,1006.9955694670007,1007.4125478790011,1007.712362495,1008.2126463189998,1007.712362495,None,44,44,0,,,7,001,exponential,bryg,0.35-0.75,2021_May_18_1550,color_judgement_and_subjective_perception,2020.2.10,60.04668822186134,
3,0.35,testing,1000,1,,,,,,,,,0,0,0,0,18,2,74,3,,,,,1008.8126020400014,None,j,0.3770472090000112,1008.9126048620001,None,1008.3124191919997,1008.7292923639998,1009.3125385479998,1009.8127590510012,1009.3125385479998,None,0,29,0,,,7,001,exponential,bryg,0.35-0.75,2021_May_18_1550,color_judgement_and_subjective_perception,2020.2.10,60.04668822186134,
1,0.35,testing,1000,1,,,,,,,,,0,0,0,0,18,3,75,1,,,,,1010.3970377530004,None,d,0.560676680999677,1010.4968673960011,None,1009.9127902500004,1010.3137074450005,1011.0803097070002,1011.5805046100013,1011.0803097070002,None,44,15,0,,,7,001,exponential,bryg,0.35-0.75,2021_May_18_1550,color_judgement_and_subjective_perception,2020.2.10,60.04668822186134,
1,0.35,testing,1000,1,,,,,,,,,0,0,0,0,19,0,76,1,,,,,1012.1806536500007,None,d,0.40096380399882037,1012.2807200360003,None,1011.6804904500004,1012.097239793,1012.7140020700008,1013.2140615290009,1012.7140020700008,None,46,15,0,,,7,001,exponential,bryg,0.35-0.75,2021_May_18_1550,color_judgement_and_subjective_perception,2020.2.10,60.04668822186134,
3,0.35,testing,1000,1,,,,,,,,,0,0,0,0,19,1,77,3,,,,,1013.8142227010012,None,k,0.6314621839992469,1013.9142311619999,None,1013.3141226549997,1013.7308468090014,1014.5641511570011,1015.0488811120013,1014.5641511570011,None,0,33,0,,,7,001,exponential,bryg,0.35-0.75,2021_May_18_1550,color_judgement_and_subjective_perception,2020.2.10,60.04668822186134,
0,0.35,testing,1000,1,,,,,,,,,0,0,0,0,19,2,78,0,,,,,1015.6487510420011,None,d,0.5489971059996606,1015.7486800830011,None,1015.1485338250004,1015.5653316260014,1016.3151522300013,1016.8156139860002,1016.3151522300013,None,0,0,26,,,7,001,exponential,bryg,0.35-0.75,2021_May_18_1550,color_judgement_and_subjective_perception,2020.2.10,60.04668822186134,
2,0.35,testing,1000,1,,,,,,,,,0,0,0,0,19,3,79,2,,,,,1017.4158041150004,None,k,0.6698925330001657,1017.5157727340011,None,1016.9154870800012,1017.3323567300013,1018.2155854400007,1018.7157880089999,1018.2155854400007,None,47,47,0,,,7,001,exponential,bryg,0.35-0.75,2021_May_18_1550,color_judgement_and_subjective_perception,2020.2.10,60.04668822186134,
0,0.35,testing,1000,1,,,,,,,,,0,0,0,0,20,0,80,0,,,,,1019.315530635,None,d,0.6336688980009058,1019.4160147359999,None,1018.8157065160012,1019.2325647880007,1020.072239649,1020.5668541470004,1020.072239649,None,0,0,23,,,7,001,exponential,bryg,0.35-0.75,2021_May_18_1550,color_judgement_and_subjective_perception,2020.2.10,60.04668822186134,
2,0.35,testing,1000,1,,,,,,,,,0,0,0,0,20,1,81,2,,,,,1021.1670608069999,None,j,0.4306482109986973,1021.2670348980009,None,1020.6668671879997,1021.0836770140013,1021.7169661730004,1022.2172438300004,1021.7169661730004,None,46,46,0,,,7,001,exponential,bryg,0.35-0.75,2021_May_18_1550,color_judgement_and_subjective_perception,2020.2.10,60.04668822186134,
3,0.35,testing,1000,1,,,,,,,,,0,0,0,0,20,2,82,3,,,,,1022.817427471,None,k,0.6283587460002309,1022.9173226210005,None,1022.3171502660007,1022.7341058170005,1023.5671809710002,1024.0674395320002,1023.5671809710002,None,0,27,0,,,7,001,exponential,bryg,0.35-0.75,2021_May_18_1550,color_judgement_and_subjective_perception,2020.2.10,60.04668822186134,
1,0.35,testing,1000,1,,,,,,,,,0,0,0,0,20,3,83,1,,,,,1024.667543427,None,f,0.402126519000376,1024.7675606290013,None,1024.1674255300004,1024.5841700319997,1025.2015861170003,1025.701766704,1025.2015861170003,None,42,14,0,,,7,001,exponential,bryg,0.35-0.75,2021_May_18_1550,color_judgement_and_subjective_perception,2020.2.10,60.04668822186134,
1,0.35,testing,1000,1,,,,,,,,,0,0,0,0,21,0,84,1,,,,,1026.3019856230003,None,f,0.591694880000432,1026.4019690800014,None,1025.8017665980005,1026.2185190380005,1027.0185957110007,1027.518882933,1027.0185957110007,None,42,14,0,,,7,001,exponential,bryg,0.35-0.75,2021_May_18_1550,color_judgement_and_subjective_perception,2020.2.10,60.04668822186134,
2,0.35,testing,1000,1,,,,,,,,,0,0,0,0,21,1,85,2,,,,,1028.1188442020011,None,k,0.7188002100010635,1028.2188868760004,None,1027.6188937309998,1028.035648268,1028.9687676450012,1029.4689473710005,1028.9687676450012,None,41,41,0,,,7,001,exponential,bryg,0.35-0.75,2021_May_18_1550,color_judgement_and_subjective_perception,2020.2.10,60.04668822186134,
0,0.35,testing,1000,1,,,,,,,,,0,0,0,0,21,2,86,0,,,,,1030.0605712510005,None,d,0.856249514999945,1030.1534293760014,None,1029.5690176340013,1029.9856421719996,1031.036462598,1031.5365476280003,1031.036462598,None,0,0,16,,,7,001,exponential,bryg,0.35-0.75,2021_May_18_1550,color_judgement_and_subjective_perception,2020.2.10,60.04668822186134,
3,0.35,testing,1000,1,,,,,,,,,0,0,0,0,21,3,87,3,,,,,1032.1369553080003,None,k,0.6287720249983977,1032.2369042150003,None,1031.6367423869997,1032.0536342260002,1032.8869651950008,1033.387086992001,1032.8869651950008,None,0,21,0,,,7,001,exponential,bryg,0.35-0.75,2021_May_18_1550,color_judgement_and_subjective_perception,2020.2.10,60.04668822186134,
3,0.35,testing,1000,1,,,,,,,,,0,0,0,0,22,0,88,3,,,,,1033.9871337590012,None,k,0.626415614000507,1034.0872487720007,None,1033.4870074700011,1033.903884655001,1034.7371149280007,1035.2216202500003,1034.7371149280007,None,0,19,0,,,7,001,exponential,bryg,0.35-0.75,2021_May_18_1550,color_judgement_and_subjective_perception,2020.2.10,60.04668822186134,
0,0.35,testing,1000,1,,,,,,,,,0,0,0,0,22,1,89,0,,,,,1035.821605778001,None,k,0.5281153430005361,1035.921555365001,None,1035.3214859279997,1035.738338774001,1036.4717123310002,1036.971841296001,1036.4717123310002,None,0,0,12,,,7,001,exponential,bryg,0.35-0.75,2021_May_18_1550,color_judgement_and_subjective_perception,2020.2.10,60.04668822186134,
2,0.35,testing,1000,1,,,,,,,,,0,0,0,0,22,2,90,2,,,,,1037.5719976070013,None,j,0.7696015969995642,1037.6720538930003,None,1037.071781439001,1037.4888476650012,1038.4719624179997,1038.9720550820002,1038.4719624179997,None,37,37,0,,,7,001,exponential,bryg,0.35-0.75,2021_May_18_1550,color_judgement_and_subjective_perception,2020.2.10,60.04668822186134,
1,0.35,testing,1000,1,,,,,,,,,0,0,0,0,22,3,91,1,,,,,1039.5721577580007,None,j,0.5535284059988044,1039.672150806,None,1039.0720553760002,1039.488933730001,1040.2562930000004,1040.7565185330004,1040.2562930000004,None,34,11,0,,,7,001,exponential,bryg,0.35-0.75,2021_May_18_1550,color_judgement_and_subjective_perception,2020.2.10,60.04668822186134,
0,0.35,testing,1000,1,,,,,,,,,0,0,0,0,23,0,92,0,,,,,1041.356794966001,None,k,0.816947130000699,1041.456604549001,None,1040.856404217,1041.2732798670004,1042.3067589710008,1042.8070371700014,1042.3067589710008,None,0,0,8,,,7,001,exponential,bryg,0.35-0.75,2021_May_18_1550,color_judgement_and_subjective_perception,2020.2.10,60.04668822186134,
2,0.35,testing,1000,1,,,,,,,,,0,0,0,0,23,1,93,2,,,,,1043.4070251480007,None,d,0.3827031729997543,1043.5069459349997,None,1042.906955331,1043.3236564710005,1043.9069970950004,1044.4071560850007,1043.9069970950004,None,33,33,0,,,7,001,exponential,bryg,0.35-0.75,2021_May_18_1550,color_judgement_and_subjective_perception,2020.2.10,60.04668822186134,
1,0.35,testing,1000,1,,,,,,,,,0,0,0,0,23,2,94,1,,,,,1045.0072698620006,None,f,0.6543481969983986,1045.0913521769999,None,1044.507020215,1044.9239403800002,1045.774702480001,1046.2748664980008,1045.774702480001,None,32,11,0,,,7,001,exponential,bryg,0.35-0.75,2021_May_18_1550,color_judgement_and_subjective_perception,2020.2.10,60.04668822186134,
3,0.35,testing,1000,1,,,,,,,,,0,0,0,0,23,3,95,3,,,,,1046.8750253020007,None,f,0.8667349650004326,1046.9749671580012,None,1046.3746816849998,1046.7915817049998,1047.8583877689998,1048.3585224159997,1047.8583877689998,None,0,13,0,,,7,001,exponential,bryg,0.35-0.75,2021_May_18_1550,color_judgement_and_subjective_perception,2020.2.10,60.04668822186134,
1,0.35,testing,1000,1,,,,,,,,,0,0,0,0,,,,,0,0,0,1,1100.9420999410013,None,f,0.8635424589992908,1101.0421339820005,None,1100.441936659001,1100.8589112950012,1101.928787105,1102.4259891350011,1101.928787105,None,31,10,0,1048.4711151339998,None,7,001,exponential,bryg,0.35-0.75,2021_May_18_1550,color_judgement_and_subjective_perception,2020.2.10,60.04668822186134,
1,0.35,testing,1000,1,,,,,,,,,0,0,0,0,,,,,0,1,1,1,1103.026037564001,None,f,0.45168729099896154,1103.1259929019998,None,1102.5256776620008,1102.9426850590007,1103.609194005001,1104.1093197980008,1103.609194005001,None,29,10,0,None,None,7,001,exponential,bryg,0.35-0.75,2021_May_18_1550,color_judgement_and_subjective_perception,2020.2.10,60.04668822186134,
1,0.35,testing,1000,1,,,,,,,,,0,0,0,0,,,,,0,2,2,1,1104.709492752001,None,d,0.7041967689983721,1104.809488545001,None,1104.2091152579997,1104.6262424270008,1105.5453487980012,1106.0437360110009,1105.5453487980012,None,27,9,0,None,None,7,001,exponential,bryg,0.35-0.75,2021_May_18_1550,color_judgement_and_subjective_perception,2020.2.10,60.04668822186134,
3,0.35,testing,1000,1,,,,,,,,,0,0,0,0,,,,,0,3,3,3,1106.6440432400013,None,None,-1,1106.7438912529997,None,1106.1436866889999,1106.5604234620005,1107.6614298310014,1108.1608425860013,1107.6614298310014,None,0,10,0,None,None,7,001,exponential,bryg,0.35-0.75,2021_May_18_1550,color_judgement_and_subjective_perception,2020.2.10,60.04668822186134,
2,0.35,testing,1000,1,,,,,,,,,0,0,0,0,,,,,1,0,4,2,1108.7608874340003,None,k,0.540792699001031,1108.8608724210007,None,1108.260570339,1108.677575912001,1109.429605071,1109.927682069001,1109.429605071,None,31,31,0,None,None,7,001,exponential,bryg,0.35-0.75,2021_May_18_1550,color_judgement_and_subjective_perception,2020.2.10,60.04668822186134,
1,0.35,testing,1000,1,,,,,,,,,0,0,0,0,,,,,1,1,5,1,1110.512019707001,None,d,0.5895987359999708,1110.612079466,None,1110.0276440840007,1110.4287406010008,1111.2286002960009,1111.728741711,1111.2286002960009,None,27,9,0,None,None,7,001,exponential,bryg,0.35-0.75,2021_May_18_1550,color_judgement_and_subjective_perception,2020.2.10,60.04668822186134,
2,0.35,testing,1000,1,,,,,,,,,0,0,0,0,,,,,1,2,6,2,1112.3289483750013,None,j,0.7326144499984366,1112.4290602070014,None,1111.8286278270007,1112.2456352300014,1113.1814072640009,1113.6792205450001,1113.1814072640009,None,34,34,0,None,None,7,001,exponential,bryg,0.35-0.75,2021_May_18_1550,color_judgement_and_subjective_perception,2020.2.10,60.04668822186134,
0,0.35,testing,1000,1,,,,,,,,,0,0,0,0,,,,,1,3,7,0,1114.2791562210004,None,k,0.7264832900000329,1114.379198187,None,1113.7790278230004,1114.1958908249999,1115.1320871000007,1115.6303546609997,1115.1320871000007,None,0,0,6,None,None,7,001,exponential,bryg,0.35-0.75,2021_May_18_1550,color_judgement_and_subjective_perception,2020.2.10,60.04668822186134,
3,0.35,testing,1000,1,,,,,,,,,0,0,0,0,,,,,2,0,8,3,1116.2302956250005,None,d,0.3672237579994544,1116.330379092,None,1115.7300941660014,1116.1469449289998,1116.7301781710012,1117.2306251910013,1116.7301781710012,None,0,12,0,None,None,7,001,exponential,bryg,0.35-0.75,2021_May_18_1550,color_judgement_and_subjective_perception,2020.2.10,60.04668822186134,
1,0.35,testing,1000,1,,,,,,,,,0,0,0,0,,,,,2,1,9,1,1117.8307525060009,None,f,0.6309223260013823,1117.9307452290013,None,1117.3303544160008,1117.7473564760003,1118.5824141850007,1119.0807931990003,1118.5824141850007,None,28,9,0,None,None,7,001,exponential,bryg,0.35-0.75,2021_May_18_1550,color_judgement_and_subjective_perception,2020.2.10,60.04668822186134,
1,0.35,testing,1000,1,,,,,,,,,0,0,0,0,,,,,2,2,10,1,1119.680948086001,None,k,0.5007068510003592,1119.7809832330004,None,1119.180684543,1119.597451908001,1120.3007294569998,1120.7984971229998,1120.3007294569998,None,26,9,0,None,None,7,001,exponential,bryg,0.35-0.75,2021_May_18_1550,color_judgement_and_subjective_perception,2020.2.10,60.04668822186134,
0,0.35,testing,1000,1,,,,,,,,,0,0,0,0,,,,,2,3,11,0,1121.3986097880006,None,d,0.4468993970003794,1121.4987946870006,None,1120.8983426040013,1121.3152405070014,1121.9670142989999,1122.465384047,1121.9670142989999,None,0,0,9,None,None,7,001,exponential,bryg,0.35-0.75,2021_May_18_1550,color_judgement_and_subjective_perception,2020.2.10,60.04668822186134,
2,0.35,testing,1000,1,,,,,,,,,0,0,0,0,,,,,3,0,12,2,1123.0655020900012,None,d,0.5560607580009673,1123.1656074430011,None,1122.5653669399999,1122.9821713590009,1123.7505757950003,1124.249077333001,1123.7505757950003,None,33,33,0,None,None,7,001,exponential,bryg,0.35-0.75,2021_May_18_1550,color_judgement_and_subjective_perception,2020.2.10,60.04668822186134,
1,0.35,testing,1000,1,,,,,,,,,0,0,0,0,,,,,3,1,13,1,1124.849159894,None,d,0.6925035160002153,1124.9491611579997,None,1124.3488606259998,1124.7659284710007,1125.666734018001,1126.1669189550012,1125.666734018001,None,24,8,0,None,None,7,001,exponential,bryg,0.35-0.75,2021_May_18_1550,color_judgement_and_subjective_perception,2020.2.10,60.04668822186134,
2,0.35,testing,1000,1,,,,,,,,,0,0,0,0,,,,,3,2,14,2,1126.766921515,None,k,0.5827013380003336,1126.8669766720013,None,1126.2666270240006,1126.6835772600007,1127.467299965001,1127.9672614680003,1127.467299965001,None,34,34,0,None,None,7,001,exponential,bryg,0.35-0.75,2021_May_18_1550,color_judgement_and_subjective_perception,2020.2.10,60.04668822186134,
2,0.35,testing,1000,1,,,,,,,,,0,0,0,0,,,,,3,3,15,2,1128.5671843790005,None,k,0.6864588540011027,1128.667195215001,None,1128.0670558330003,1128.4838737600003,1129.3839894210014,1129.8841973240014,1129.3839894210014,None,36,36,0,None,None,7,001,exponential,bryg,0.35-0.75,2021_May_18_1550,color_judgement_and_subjective_perception,2020.2.10,60.04668822186134,
3,0.35,testing,1000,1,,,,,,,,,0,0,0,0,,,,,4,0,16,3,1130.4683332559998,None,d,0.5932389750014408,1130.5684233650009,None,1129.983939818001,1130.3849975560006,1131.184847161001,1131.6852303699998,1131.184847161001,None,0,15,0,None,None,7,001,exponential,bryg,0.35-0.75,2021_May_18_1550,color_judgement_and_subjective_perception,2020.2.10,60.04668822186134,
3,0.35,testing,1000,1,,,,,,,,,0,0,0,0,,,,,4,1,17,3,1132.2854576520003,None,k,0.7361984170001961,1132.3854665550007,None,1131.7849582730014,1132.2018169950006,1133.1536906380006,1133.652038657001,1133.1536906380006,None,0,17,0,None,None,7,001,exponential,bryg,0.35-0.75,2021_May_18_1550,color_judgement_and_subjective_perception,2020.2.10,60.04668822186134,
0,0.35,testing,1000,1,,,,,,,,,0,0,0,0,,,,,4,2,18,0,1134.2522865250012,None,k,0.6735191649986518,1134.3521614370002,None,1133.7519883759996,1134.1688758930013,1135.053984682001,1135.536760461,1135.053984682001,None,0,0,9,None,None,7,001,exponential,bryg,0.35-0.75,2021_May_18_1550,color_judgement_and_subjective_perception,2020.2.10,60.04668822186134,
1,0.35,testing,1000,1,,,,,,,,,0,0,0,0,,,,,4,3,19,1,1136.1367837830003,None,d,0.8449552300007781,1136.2367404830002,None,1135.6364451730005,1136.0533072320013,1137.1034266469997,1137.6035844609996,1137.1034266469997,None,29,10,0,None,None,7,001,exponential,bryg,0.35-0.75,2021_May_18_1550,color_judgement_and_subjective_perception,2020.2.10,60.04668822186134,
2,0.35,testing,1000,1,,,,,,,,,0,0,0,0,,,,,5,0,20,2,1138.2037937349996,None,k,0.6017903179999848,1138.3038789220009,None,1137.7034988560008,1138.1202118239999,1138.9369196099997,1139.4371633610008,1138.9369196099997,None,40,40,0,None,None,7,001,exponential,bryg,0.35-0.75,2021_May_18_1550,color_judgement_and_subjective_perception,2020.2.10,60.04668822186134,
0,0.35,testing,1000,1,,,,,,,,,0,0,0,0,,,,,5,1,21,0,1140.0373861549997,None,d,0.6560745400001906,1140.1215158249997,None,1139.5370150939998,1139.953957658001,1140.8064948070005,1141.3049913350005,1140.8064948070005,None,0,0,13,None,None,7,001,exponential,bryg,0.35-0.75,2021_May_18_1550,color_judgement_and_subjective_perception,2020.2.10,60.04668822186134,
1,0.35,testing,1000,1,,,,,,,,,0,0,0,0,,,,,5,2,22,1,1141.9050372500005,None,d,0.684605050000755,1142.0050510290002,None,1141.4047536609996,1141.8215924779997,1142.7237329210002,1143.2217855100007,1142.7237329210002,None,31,10,0,None,None,7,001,exponential,bryg,0.35-0.75,2021_May_18_1550,color_judgement_and_subjective_perception,2020.2.10,60.04668822186134,
3,0.35,testing,1000,1,,,,,,,,,0,0,0,0,,,,,5,3,23,3,1143.8219527210003,None,None,-1,1143.9220107150013,None,1143.3217169649997,1143.7386400550004,1144.8393106610001,1145.3231123820005,1144.8393106610001,None,0,18,0,None,None,7,001,exponential,bryg,0.35-0.75,2021_May_18_1550,color_judgement_and_subjective_perception,2020.2.10,60.04668822186134,
3,0.35,testing,1000,1,,,,,,,,,0,0,0,0,,,,,6,0,24,3,1145.9231256780004,None,d,0.6985741240005154,1146.0231458690014,None,1145.422957916,1145.8398149180011,1146.742034297,1147.2400930370004,1146.742034297,None,0,20,0,None,None,7,001,exponential,bryg,0.35-0.75,2021_May_18_1550,color_judgement_and_subjective_perception,2020.2.10,60.04668822186134,
2,0.35,testing,1000,1,,,,,,,,,0,0,0,0,,,,,6,1,25,2,1147.8401896680007,None,j,0.7093704969993269,1147.940284395001,None,1147.3399188720014,1147.756915199001,1148.675479163001,1149.1736200249998,1148.675479163001,None,44,44,0,None,None,7,001,exponential,bryg,0.35-0.75,2021_May_18_1550,color_judgement_and_subjective_perception,2020.2.10,60.04668822186134,
2,0.35,testing,1000,1,,,,,,,,,0,0,0,0,,,,,6,2,26,2,1149.773781967,None,j,0.8079611390003265,1149.873704003001,None,1149.2734701810004,1149.690517051,1150.7080113049997,1151.2079278780002,1150.7080113049997,None,42,42,0,None,None,7,001,exponential,bryg,0.35-0.75,2021_May_18_1550,color_judgement_and_subjective_perception,2020.2.10,60.04668822186134,
0,0.35,testing,1000,1,,,,,,,,,0,0,0,0,,,,,6,3,27,0,1151.8081039710014,None,d,0.5813996859997133,1151.9082801269997,None,1151.3078602450005,1151.724762703001,1152.5082759240013,1153.0084101730008,1152.5082759240013,None,0,0,12,None,None,7,001,exponential,bryg,0.35-0.75,2021_May_18_1550,color_judgement_and_subjective_perception,2020.2.10,60.04668822186134,
1,0.35,testing,1000,1,,,,,,,,,0,0,0,0,,,,,7,0,28,1,1153.6085791220012,None,f,0.6611681810009031,1153.7084255980008,None,1153.108265121,1153.5251438270006,1154.3917535300006,1154.8920374380014,1154.3917535300006,None,32,11,0,None,None,7,001,exponential,bryg,0.35-0.75,2021_May_18_1550,color_judgement_and_subjective_perception,2020.2.10,60.04668822186134,
2,0.35,testing,1000,1,,,,,,,,,0,0,0,0,,,,,7,1,29,2,1155.4762848460014,None,None,-1,1155.5764137240003,None,1154.991961922,1155.3928913130003,1156.4937435390002,1156.9931218930014,1156.4937435390002,None,38,38,0,None,None,7,001,exponential,bryg,0.35-0.75,2021_May_18_1550,color_judgement_and_subjective_perception,2020.2.10,60.04668822186134,
1,0.35,testing,1000,1,,,,,,,,,0,0,0,0,,,,,7,2,30,1,1157.5933409440004,None,d,0.6124070940004458,1157.6932867490013,None,1157.0930074740008,1157.5099891030004,1158.328269304,1158.8268101780013,1158.328269304,None,29,10,0,None,None,7,001,exponential,bryg,0.35-0.75,2021_May_18_1550,color_judgement_and_subjective_perception,2020.2.10,60.04668822186134,
3,0.35,testing,1000,1,,,,,,,,,0,0,0,0,,,,,7,3,31,3,1159.4268690280005,None,k,0.7709267319987703,1159.5268187110014,None,1158.9265600590006,1159.3434939180006,1160.3296739119996,1160.8278257000002,1160.3296739119996,None,0,16,0,None,None,7,001,exponential,bryg,0.35-0.75,2021_May_18_1550,color_judgement_and_subjective_perception,2020.2.10,60.04668822186134,
3,0.35,testing,1000,1,,,,,,,,,0,0,0,0,,,,,8,0,32,3,1161.4279572940013,None,d,0.5856351440015715,1161.5280170700007,None,1160.927725167001,1161.3445582210006,1162.146447223,1162.6448859700013,1162.146447223,None,0,14,0,None,None,7,001,exponential,bryg,0.35-0.75,2021_May_18_1550,color_judgement_and_subjective_perception,2020.2.10,60.04668822186134,
1,0.35,testing,1000,1,,,,,,,,,0,0,0,0,,,,,8,1,33,1,1163.2449202139996,None,d,0.7847328080006264,1163.3449239350011,None,1162.7447320560004,1163.1615539670001,1164.161673572,1164.6619165720003,1164.161673572,None,27,9,0,None,None,7,001,exponential,bryg,0.35-0.75,2021_May_18_1550,color_judgement_and_subjective_perception,2020.2.10,60.04668822186134,
2,0.35,testing,1000,1,,,,,,,,,0,0,0,0,,,,,8,2,34,2,1165.2460889659997,None,j,0.5676535309994506,1165.3460159820006,None,1164.7615756220002,1165.1627493680007,1165.948123995,1166.4461564860012,1165.948123995,None,34,34,0,None,None,7,001,exponential,bryg,0.35-0.75,2021_May_18_1550,color_judgement_and_subjective_perception,2020.2.10,60.04668822186134,
2,0.35,testing,1000,1,,,,,,,,,0,0,0,0,,,,,8,3,35,2,1167.0463039250008,None,k,0.4233958929999062,1167.1462922580013,None,1166.5459430520004,1166.9628654900007,1167.5981376590007,1168.0965185639998,1167.5981376590007,None,32,32,0,None,None,7,001,exponential,bryg,0.35-0.75,2021_May_18_1550,color_judgement_and_subjective_perception,2020.2.10,60.04668822186134,
1,0.35,testing,1000,1,,,,,,,,,0,0,0,0,,,,,9,0,36,1,1168.6964230680005,None,d,0.6610349670008873,1168.7965261790014,None,1168.1963365970005,1168.6132474639999,1169.479975323,1169.9801156530011,1169.479975323,None,29,10,0,None,None,7,001,exponential,bryg,0.35-0.75,2021_May_18_1550,color_judgement_and_subjective_perception,2020.2.10,60.04668822186134,
3,0.35,testing,1000,1,,,,,,,,,0,0,0,0,,,,,9,1,37,3,1170.564482242,None,f,0.6172603650011297,1170.664353057,None,1170.0799821420005,1170.4811184520004,1171.3143804580013,1171.814538386001,1171.3143804580013,None,0,16,0,None,None,7,001,exponential,bryg,0.35-0.75,2021_May_18_1550,color_judgement_and_subjective_perception,2020.2.10,60.04668822186134,
3,0.35,testing,1000,1,,,,,,,,,0,0,0,0,,,,,9,2,38,3,1172.414660317001,None,None,-1,1172.5146954330012,None,1171.9143686019997,1172.331420859,1173.4319293610006,1173.9315051530011,1173.4319293610006,None,0,18,0,None,None,7,001,exponential,bryg,0.35-0.75,2021_May_18_1550,color_judgement_and_subjective_perception,2020.2.10,60.04668822186134,
3,0.35,testing,1000,1,,,,,,,,,0,0,0,0,,,,,9,3,39,3,1174.531571783,None,k,0.6179477820005559,1174.6316477729997,None,1174.0313041540012,1174.4483521110014,1175.284290073001,1175.78253416,1175.284290073001,None,0,20,0,None,None,7,001,exponential,bryg,0.35-0.75,2021_May_18_1550,color_judgement_and_subjective_perception,2020.2.10,60.04668822186134,
3,0.35,testing,1000,1,,,,,,,,,0,0,0,0,,,,,10,0,40,3,1176.3826629350006,None,k,0.6070478710007592,1176.4826217540012,None,1175.8823375499996,1176.2991717290006,1177.115987168001,1177.6164069349998,1177.115987168001,None,0,18,0,None,None,7,001,exponential,bryg,0.35-0.75,2021_May_18_1550,color_judgement_and_subjective_perception,2020.2.10,60.04668822186134,
2,0.35,testing,1000,1,,,,,,,,,0,0,0,0,,,,,10,1,41,2,1178.2163732629997,None,k,0.6853402199994889,1178.3163407770007,None,1177.7162062710013,1178.1329757020012,1179.0349410460003,1179.5331380520001,1179.0349410460003,None,33,33,0,None,None,7,001,exponential,bryg,0.35-0.75,2021_May_18_1550,color_judgement_and_subjective_perception,2020.2.10,60.04668822186134,
1,0.35,testing,1000,1,,,,,,,,,0,0,0,0,,,,,10,2,42,1,1180.118060588,None,d,0.7840743609995116,1180.217531395001,None,1179.6330148289999,1180.0498608760008,1181.0344390270002,1181.5341793860007,1181.0344390270002,None,30,10,0,None,None,7,001,exponential,bryg,0.35-0.75,2021_May_18_1550,color_judgement_and_subjective_perception,2020.2.10,60.04668822186134,
1,0.35,testing,1000,1,,,,,,,,,0,0,0,0,,,,,10,3,43,1,1182.1343605929997,None,f,0.6311435259995051,1182.2345501070013,None,1181.6342049739997,1182.0510180410001,1182.8865591129997,1183.3845321540011,1182.8865591129997,None,32,11,0,None,None,7,001,exponential,bryg,0.35-0.75,2021_May_18_1550,color_judgement_and_subjective_perception,2020.2.10,60.04668822186134,
3,0.35,testing,1000,1,,,,,,,,,0,0,0,0,,,,,11,0,44,3,1183.984644819,None,f,0.6450884780006163,1184.084586604,None,1183.4844133650004,1183.901202086001,1184.7529943620011,1185.2357865700014,1184.7529943620011,None,0,15,0,None,None,7,001,exponential,bryg,0.35-0.75,2021_May_18_1550,color_judgement_and_subjective_perception,2020.2.10,60.04668822186134,
1,0.35,testing,1000,1,,,,,,,,,0,0,0,0,,,,,11,1,45,1,1185.8358412540001,None,d,0.6578243040003144,1185.9358591769997,None,1185.335508794,1185.752333206001,1186.61904702,1187.1193505070005,1186.61904702,None,31,10,0,None,None,7,001,exponential,bryg,0.35-0.75,2021_May_18_1550,color_judgement_and_subjective_perception,2020.2.10,60.04668822186134,
2,0.35,testing,1000,1,,,,,,,,,0,0,0,0,,,,,11,2,46,2,1187.7195984870013,None,j,0.8781522000008408,1187.8195255770006,None,1187.2191624160005,1187.6361567430013,1188.721155356001,1189.2194808350014,1188.721155356001,None,35,35,0,None,None,7,001,exponential,bryg,0.35-0.75,2021_May_18_1550,color_judgement_and_subjective_perception,2020.2.10,60.04668822186134,
1,0.35,testing,1000,1,,,,,,,,,0,0,0,0,,,,,11,3,47,1,1189.819495009,None,k,0.857961993000572,1189.9197184290006,None,1189.3194838960007,1189.7363956070003,1190.8055248720011,1191.3041823170006,1190.8055248720011,None,32,11,0,None,None,7,001,exponential,bryg,0.35-0.75,2021_May_18_1550,color_judgement_and_subjective_perception,2020.2.10,60.04668822186134,
3,0.35,testing,1000,1,,,,,,,,,0,0,0,0,,,,,12,0,48,3,1191.904185749001,None,d,0.8054749470011302,1192.0042018650001,None,1191.4040162340007,1191.820826602001,1192.8375671310005,1193.3376016889997,1192.8375671310005,None,0,16,0,None,None,7,001,exponential,bryg,0.35-0.75,2021_May_18_1550,color_judgement_and_subjective_perception,2020.2.10,60.04668822186134,
1,0.35,testing,1000,1,,,,,,,,,0,0,0,0,,,,,12,1,49,1,1193.9377001419998,None,f,0.4679503099996509,1194.0377182890006,None,1193.4375191239997,1193.8545691520012,1194.539588855001,1195.0380663980013,1194.539588855001,None,35,12,0,None,None,7,001,exponential,bryg,0.35-0.75,2021_May_18_1550,color_judgement_and_subjective_perception,2020.2.10,60.04668822186134,
1,0.35,testing,1000,1,,,,,,,,,0,0,0,0,,,,,12,2,50,1,1195.6224348369997,None,None,-1,1195.7222308480013,None,1195.1265106600003,1195.5388976499999,1196.639837842,1197.1391347900008,1196.639837842,None,33,11,0,None,None,7,001,exponential,bryg,0.35-0.75,2021_May_18_1550,color_judgement_and_subjective_perception,2020.2.10,60.04668822186134,
2,0.35,testing,1000,1,,,,,,,,,0,0,0,0,,,,,12,3,51,2,1197.7394350539998,None,j,0.5142519580003864,1197.8394284160004,None,1197.2389825210012,1197.6560513290005,1198.3734143910006,1198.8060850500005,1198.3734143910006,None,35,35,0,None,None,7,001,exponential,bryg,0.35-0.75,2021_May_18_1550,color_judgement_and_subjective_perception,2020.2.10,60.04668822186134,
2,0.35,testing,1000,1,,,,,,,,,0,0,0,0,,,,,13,0,52,2,1199.406095923001,None,j,0.5515404819998366,1199.5061117240002,None,1198.9058523210006,1199.322781297,1200.0895771120013,1200.5739382810007,1200.0895771120013,None,33,33,0,None,None,7,001,exponential,bryg,0.35-0.75,2021_May_18_1550,color_judgement_and_subjective_perception,2020.2.10,60.04668822186134,
2,0.35,testing,1000,1,,,,,,,,,0,0,0,0,,,,,13,1,53,2,1201.1738762500008,None,j,0.6158884159995068,1201.273777753,None,1200.6735605970007,1201.0905262779997,1201.9075677260007,1202.4073303390014,1201.9075677260007,None,31,31,0,None,None,7,001,exponential,bryg,0.35-0.75,2021_May_18_1550,color_judgement_and_subjective_perception,2020.2.10,60.04668822186134,
2,0.35,testing,1000,1,,,,,,,,,0,0,0,0,,,,,13,2,54,2,1203.0075746900002,None,d,0.6463852279994171,1203.1072969870002,None,1202.507113918,1202.9240940670006,1203.7768806130007,1204.2743518040006,1203.7768806130007,None,29,29,0,None,None,7,001,exponential,bryg,0.35-0.75,2021_May_18_1550,color_judgement_and_subjective_perception,2020.2.10,60.04668822186134,
3,0.35,testing,1000,1,,,,,,,,,0,0,0,0,,,,,13,3,55,3,1204.8745367350002,None,f,0.6670189889991889,1204.974600433001,None,1204.3742502570003,1204.7911137990013,1205.6590700770012,1206.15876579,1205.6590700770012,None,0,14,0,None,None,7,001,exponential,bryg,0.35-0.75,2021_May_18_1550,color_judgement_and_subjective_perception,2020.2.10,60.04668822186134,
3,0.35,testing,1000,1,,,,,,,,,0,0,0,0,,,,,14,0,56,3,1206.7589536640007,None,j,0.662702026000261,1206.8589596260008,None,1206.2585525499999,1206.6753764670011,1207.5423330510002,1208.0424515150007,1207.5423330510002,None,0,14,0,None,None,7,001,exponential,bryg,0.35-0.75,2021_May_18_1550,color_judgement_and_subjective_perception,2020.2.10,60.04668822186134,
1,0.35,testing,1000,1,,,,,,,,,0,0,0,0,,,,,14,1,57,1,1208.6424400880005,None,k,0.6591768359994603,1208.742490124001,None,1208.1422945490012,1208.5591969100005,1209.4259923320005,1209.926126329001,1209.4259923320005,None,31,10,0,None,None,7,001,exponential,bryg,0.35-0.75,2021_May_18_1550,color_judgement_and_subjective_perception,2020.2.10,60.04668822186134,
0,0.35,testing,1000,1,,,,,,,,,0,0,0,0,,,,,14,2,58,0,1210.5104461150004,None,j,0.5752862509998522,1210.6103978379997,None,1210.0258068500007,1210.427130506001,1211.21009848,1211.7104823870013,1211.21009848,None,0,0,6,None,None,7,001,exponential,bryg,0.35-0.75,2021_May_18_1550,color_judgement_and_subjective_perception,2020.2.10,60.04668822186134,
1,0.35,testing,1000,1,,,,,,,,,0,0,0,0,,,,,14,3,59,1,1212.310568234001,None,f,0.7749800239998876,1212.4106492200008,None,1211.8102382340003,1212.2272255040007,1213.2122476069999,1213.7107417490006,1213.2122476069999,None,34,11,0,None,None,7,001,exponential,bryg,0.35-0.75,2021_May_18_1550,color_judgement_and_subjective_perception,2020.2.10,60.04668822186134,
0,0.35,testing,1000,1,,,,,,,,,0,0,0,0,,,,,15,0,60,0,1214.3108017780014,None,d,0.806878561999838,1214.4107900010004,None,1213.810561956001,1214.2276015340012,1215.2450274340008,1215.7453393380001,1215.2450274340008,None,0,0,5,None,None,7,001,exponential,bryg,0.35-0.75,2021_May_18_1550,color_judgement_and_subjective_perception,2020.2.10,60.04668822186134,
2,0.35,testing,1000,1,,,,,,,,,0,0,0,0,,,,,15,1,61,2,1216.345196657001,None,None,-1,1216.445387916001,None,1215.844998173001,1216.2619316850014,1217.3628288600012,1217.862455247001,1217.3628288600012,None,27,27,0,None,None,7,001,exponential,bryg,0.35-0.75,2021_May_18_1550,color_judgement_and_subjective_perception,2020.2.10,60.04668822186134,
0,0.35,testing,1000,1,,,,,,,,,0,0,0,0,,,,,15,2,62,0,1218.4623119799999,None,None,-1,1218.5624855759997,None,1217.962274513,1218.3789875330003,1219.478876168001,1219.9792503710014,1219.478876168001,None,0,0,2,None,None,7,001,exponential,bryg,0.35-0.75,2021_May_18_1550,color_judgement_and_subjective_perception,2020.2.10,60.04668822186134,
3,0.35,testing,1000,1,,,,,,,,,0,0,0,0,,,,,15,3,63,3,1220.5636090300013,None,d,0.6580518330010818,1220.6636117409998,None,1220.0790763719997,1220.4800984030007,1221.3486502060005,1221.8470081739997,1221.3486502060005,None,0,16,0,None,None,7,001,exponential,bryg,0.35-0.75,2021_May_18_1550,color_judgement_and_subjective_perception,2020.2.10,60.04668822186134,
1,0.35,testing,1000,1,,,,,,,,,0,0,0,0,,,,,16,0,64,1,1222.4471340660002,None,f,0.7105921760012279,1222.5471148220004,None,1221.9468248230005,1222.363882355001,1223.2824653790012,1223.780604779,1223.2824653790012,None,32,11,0,None,None,7,001,exponential,bryg,0.35-0.75,2021_May_18_1550,color_judgement_and_subjective_perception,2020.2.10,60.04668822186134,
3,0.35,testing,1000,1,,,,,,,,,0,0,0,0,,,,,16,1,65,3,1224.3807389000012,None,None,-1,1224.480847537001,None,1223.880425276,1224.2972289380014,1225.38226088,1225.881708918001,1225.38226088,None,0,17,0,None,None,7,001,exponential,bryg,0.35-0.75,2021_May_18_1550,color_judgement_and_subjective_perception,2020.2.10,60.04668822186134,
