color_idx_ind,target_acc,mode,response_deadline,block_number,trials_training.thisRepN,trials_training.thisTrialN,trials_training.thisN,trials_training.thisIndex,trials_training_deadline.thisRepN,trials_training_deadline.thisTrialN,trials_training_deadline.thisN,trials_training_deadline.thisIndex,blocks.thisRepN,blocks.thisTrialN,blocks.thisN,blocks.thisIndex,trials_staircase.thisRepN,trials_staircase.thisTrialN,trials_staircase.thisN,trials_staircase.thisIndex,trials.thisRepN,trials.thisTrialN,trials.thisN,trials.thisIndex,stimulus_ind.started,stimulus_ind.stopped,key_resp_ind.keys,key_resp_ind.rt,key_resp_ind.started,key_resp_ind.stopped,fixation_cross_1_ind.started,fixation_cross_1_ind.stopped,text.started,text.stopped,dummy_text.started,dummy_text.stopped,stim_ind_color_rgb_r,stim_ind_color_rgb_g,stim_ind_color_rgb_b,text_break_block.started,text_break_block.stopped,participant,session,accuracy_weighting,color_mapping,block_difficulties,date,expName,psychopyVersion,frameRate,
0,0.9,training,1000000000000,,0,0,0,0,,,,,,,,,,,,,,,,,139.43919323500086,None,d,1.6788470730007248,139.5391737709997,None,138.96055738700124,139.35580358799962,141.2410885520003,141.73966420000033,141.2410885520003,None,,,,,,8,001,exponential,gyrb,0.75-0.35,2021_May_18_1715,color_judgement_and_subjective_perception,2020.2.10,59.99478393371033,
1,0.9,training,1000000000000,,0,1,1,1,,,,,,,,,,,,,,,,,142.3396155770006,None,f,1.0423509939992073,142.43965714300066,None,141.8396341330008,142.25639118900108,143.5062330260007,144.0064464620009,143.5062330260007,None,,,,,,8,001,exponential,gyrb,0.75-0.35,2021_May_18_1715,color_judgement_and_subjective_perception,2020.2.10,59.99478393371033,
3,0.9,training,1000000000000,,0,2,2,2,,,,,,,,,,,,,,,,,144.59087661000012,None,k,0.5272341469990351,144.69074794100015,None,144.09081756900014,144.50769004500034,145.2407803670012,145.74094378300106,145.2407803670012,None,,,,,,8,001,exponential,gyrb,0.75-0.35,2021_May_18_1715,color_judgement_and_subjective_perception,2020.2.10,59.99478393371033,
2,0.9,training,1000000000000,,0,3,3,3,,,,,,,,,,,,,,,,,146.34121072500056,None,j,0.4166452499994193,146.44125849100055,None,145.8409721370008,146.2577747940013,146.89104992099965,147.39133321200097,146.89104992099965,None,,,,,,8,001,exponential,gyrb,0.75-0.35,2021_May_18_1715,color_judgement_and_subjective_perception,2020.2.10,59.99478393371033,
1,0.9,training,1000000000000,,0,4,4,4,,,,,,,,,,,,,,,,,147.99129427300068,None,f,0.49474217100032547,148.091190223,None,147.49119068800064,147.90789394199965,148.60800614100117,149.09237715000017,148.60800614100117,None,,,,,,8,001,exponential,gyrb,0.75-0.35,2021_May_18_1715,color_judgement_and_subjective_perception,2020.2.10,59.99478393371033,
2,0.9,training,1000000000000,,0,5,5,5,,,,,,,,,,,,,,,,,149.69245779800076,None,j,0.7936358820006717,149.79234867800005,None,149.1924204170009,149.60900079699968,150.60915886000112,151.10944235900024,150.60915886000112,None,,,,,,8,001,exponential,gyrb,0.75-0.35,2021_May_18_1715,color_judgement_and_subjective_perception,2020.2.10,59.99478393371033,
0,0.9,training,1000000000000,,0,6,6,6,,,,,,,,,,,,,,,,,151.70948965500065,None,d,0.9364416689986683,151.80954444300005,None,151.20930431000124,151.62608208600068,152.77613498500068,153.27628868800093,152.77613498500068,None,,,,,,8,001,exponential,gyrb,0.75-0.35,2021_May_18_1715,color_judgement_and_subjective_perception,2020.2.10,59.99478393371033,
1,0.9,training,1000000000000,,0,7,7,7,,,,,,,,,,,,,,,,,153.87634810000054,None,f,0.9216433849996974,153.97635111700038,None,153.37630146500123,153.79305507299978,154.92716224099968,155.4274885220002,154.92716224099968,None,,,,,,8,001,exponential,gyrb,0.75-0.35,2021_May_18_1715,color_judgement_and_subjective_perception,2020.2.10,59.99478393371033,
2,0.9,training,1000000000000,,0,8,8,8,,,,,,,,,,,,,,,,,156.0277355240014,None,j,0.7222054079993541,156.12777797700073,None,155.52743253799963,155.94417829400118,156.8775467180003,157.3777613430011,156.8775467180003,None,,,,,,8,001,exponential,gyrb,0.75-0.35,2021_May_18_1715,color_judgement_and_subjective_perception,2020.2.10,59.99478393371033,
3,0.9,training,1000000000000,,0,9,9,9,,,,,,,,,,,,,,,,,157.97778729499987,None,k,0.4440280300004815,158.07789770199997,None,157.47768694499973,157.89447370699963,158.54441790300007,159.03601513800095,158.54441790300007,None,,,,,,8,001,exponential,gyrb,0.75-0.35,2021_May_18_1715,color_judgement_and_subjective_perception,2020.2.10,59.99478393371033,
2,0.9,training,1000000000000,,0,10,10,10,,,,,,,,,,,,,,,,,159.62903878100042,None,j,0.9530329389999679,159.72897690100035,None,159.12890114500078,159.54549091700028,160.71232772400072,161.21264090800105,160.71232772400072,None,,,,,,8,001,exponential,gyrb,0.75-0.35,2021_May_18_1715,color_judgement_and_subjective_perception,2020.2.10,59.99478393371033,
3,0.9,training,1000000000000,,0,11,11,11,,,,,,,,,,,,,,,,,161.81281849399966,None,k,0.8652141349994054,161.91280107900093,None,161.3125219450012,161.729269767,162.79607607700018,163.29619041200021,162.79607607700018,None,,,,,,8,001,exponential,gyrb,0.75-0.35,2021_May_18_1715,color_judgement_and_subjective_perception,2020.2.10,59.99478393371033,
1,0.9,training,1000000000000,,0,12,12,12,,,,,,,,,,,,,,,,,163.89636432200132,None,f,1.0137490889992478,163.99625744600053,None,163.39611204300127,163.81305668999994,165.03051068900095,165.5306347170008,165.03051068900095,None,,,,,,8,001,exponential,gyrb,0.75-0.35,2021_May_18_1715,color_judgement_and_subjective_perception,2020.2.10,59.99478393371033,
3,0.9,training,1000000000000,,0,13,13,13,,,,,,,,,,,,,,,,,166.13068742200085,None,k,0.8750959530007094,166.23081128100057,None,165.63058278000062,166.047484404,167.13061279999965,167.63113267500012,167.13061279999965,None,,,,,,8,001,exponential,gyrb,0.75-0.35,2021_May_18_1715,color_judgement_and_subjective_perception,2020.2.10,59.99478393371033,
0,0.9,training,1000000000000,,0,14,14,14,,,,,,,,,,,,,,,,,168.2311360650001,None,d,0.8308338650003861,168.33117041300102,None,167.7311057650004,168.14779551300126,169.1820060250011,169.6821155609996,169.1820060250011,None,,,,,,8,001,exponential,gyrb,0.75-0.35,2021_May_18_1715,color_judgement_and_subjective_perception,2020.2.10,59.99478393371033,
3,0.9,training,1000000000000,,0,15,15,15,,,,,,,,,,,,,,,,,170.2821825280007,None,k,0.9076882700010174,170.3823242159997,None,169.78198113500002,170.19878794299984,171.31565096400118,171.81580923100046,171.31565096400118,None,,,,,,8,001,exponential,gyrb,0.75-0.35,2021_May_18_1715,color_judgement_and_subjective_perception,2020.2.10,59.99478393371033,
0,0.9,training,1000000000000,,0,16,16,16,,,,,,,,,,,,,,,,,172.4159002870001,None,d,1.3101116600009846,172.5158786000011,None,171.91589165300138,172.3325117229997,173.84940420600105,174.3336766880002,173.84940420600105,None,,,,,,8,001,exponential,gyrb,0.75-0.35,2021_May_18_1715,color_judgement_and_subjective_perception,2020.2.10,59.99478393371033,
1,0.9,training,1000000000000,,0,17,17,17,,,,,,,,,,,,,,,,,174.93374455100093,None,f,0.44837028499932785,175.03365212100107,None,174.43364144600127,174.85056689799967,175.50034205500015,176.0006461869998,175.50034205500015,None,,,,,,8,001,exponential,gyrb,0.75-0.35,2021_May_18_1715,color_judgement_and_subjective_perception,2020.2.10,59.99478393371033,
0,0.9,training,1000000000000,,0,18,18,18,,,,,,,,,,,,,,,,,176.60079806199974,None,d,1.1171707029989193,176.700754634001,None,176.10052142600034,176.51748723700075,177.8507869670011,178.3508863700008,177.8507869670011,None,,,,,,8,001,exponential,gyrb,0.75-0.35,2021_May_18_1715,color_judgement_and_subjective_perception,2020.2.10,59.99478393371033,
2,0.9,training,1000000000000,,0,19,19,19,,,,,,,,,,,,,,,,,178.95100081500095,None,j,1.3037012920012785,179.04221408299964,None,178.4508512880002,178.86782031700022,180.36851703899993,180.86880994500098,180.36851703899993,None,,,,,,8,001,exponential,gyrb,0.75-0.35,2021_May_18_1715,color_judgement_and_subjective_perception,2020.2.10,59.99478393371033,
3,0.9,training,1000000000000,,0,20,20,20,,,,,,,,,,,,,,,,,181.46905042900107,None,k,0.3530005640004674,181.56900913699974,None,180.96873562600013,181.38565599200047,181.9522595950002,182.45228656000108,181.9522595950002,None,,,,,,8,001,exponential,gyrb,0.75-0.35,2021_May_18_1715,color_judgement_and_subjective_perception,2020.2.10,59.99478393371033,
2,0.9,training,1000000000000,,0,21,21,21,,,,,,,,,,,,,,,,,183.05234830900008,None,j,0.3136576269989746,183.15235112899973,None,182.55237432499962,182.96902612099984,183.48575386500124,183.98586098300075,183.48575386500124,None,,,,,,8,001,exponential,gyrb,0.75-0.35,2021_May_18_1715,color_judgement_and_subjective_perception,2020.2.10,59.99478393371033,
3,0.9,training,1000000000000,,0,22,22,22,,,,,,,,,,,,,,,,,184.5701014210008,None,k,0.7718162870005472,184.67019893600082,None,184.07009190999997,184.4868153210009,185.4700637850001,185.97026568399997,185.4700637850001,None,,,,,,8,001,exponential,gyrb,0.75-0.35,2021_May_18_1715,color_judgement_and_subjective_perception,2020.2.10,59.99478393371033,
1,0.9,training,1000000000000,,0,23,23,23,,,,,,,,,,,,,,,,,186.57048517300063,None,f,0.5713138060000347,186.6706454920004,None,186.07039310000073,186.4873298780003,187.27040892500008,187.77068597499965,187.27040892500008,None,,,,,,8,001,exponential,gyrb,0.75-0.35,2021_May_18_1715,color_judgement_and_subjective_perception,2020.2.10,59.99478393371033,
0,0.9,training,1000000000000,,0,24,24,24,,,,,,,,,,,,,,,,,188.37074308900083,None,d,0.34717846700004884,188.47082393799974,None,187.87059705499996,188.28736897900126,188.83743537700138,189.32162368600075,188.83743537700138,None,,,,,,8,001,exponential,gyrb,0.75-0.35,2021_May_18_1715,color_judgement_and_subjective_perception,2020.2.10,59.99478393371033,
1,0.9,training,1000000000000,,0,25,25,25,,,,,,,,,,,,,,,,,189.92158931500126,None,f,1.2120714490010869,190.0219396829998,None,189.421977684,189.83852270100033,191.2552664470004,191.75551423199977,191.2552664470004,None,,,,,,8,001,exponential,gyrb,0.75-0.35,2021_May_18_1715,color_judgement_and_subjective_perception,2020.2.10,59.99478393371033,
0,0.9,training,1000000000000,,0,26,26,26,,,,,,,,,,,,,,,,,192.3555368819998,None,d,1.3224356979990262,192.45555850500023,None,191.8554557030002,192.27224219300115,193.80563740400066,194.2901217760009,193.80563740400066,None,,,,,,8,001,exponential,gyrb,0.75-0.35,2021_May_18_1715,color_judgement_and_subjective_perception,2020.2.10,59.99478393371033,
3,0.9,training,1000000000000,,0,27,27,27,,,,,,,,,,,,,,,,,194.89002390300084,None,j,1.1559567780004727,194.9900442850012,None,194.39000257000043,194.80667411000104,196.17351392800083,196.6738377640013,196.17351392800083,None,,,,,,8,001,exponential,gyrb,0.75-0.35,2021_May_18_1715,color_judgement_and_subjective_perception,2020.2.10,59.99478393371033,
1,0.9,training,1000000000000,,0,28,28,28,,,,,,,,,,,,,,,,,197.2737487510003,None,f,0.8922432540002774,197.37376609199964,None,196.77368507600113,197.1906178950012,198.29035334800028,198.79080783999962,198.29035334800028,None,,,,,,8,001,exponential,gyrb,0.75-0.35,2021_May_18_1715,color_judgement_and_subjective_perception,2020.2.10,59.99478393371033,
2,0.9,training,1000000000000,,0,29,29,29,,,,,,,,,,,,,,,,,199.37495351300095,None,j,0.9272031680011423,199.47485783100092,None,198.89067263499965,199.29170223000074,200.42500288100018,200.92513980399963,200.42500288100018,None,,,,,,8,001,exponential,gyrb,0.75-0.35,2021_May_18_1715,color_judgement_and_subjective_perception,2020.2.10,59.99478393371033,
0,0.9,training,1000000000000,,0,30,30,30,,,,,,,,,,,,,,,,,201.52529835000132,None,d,1.3847106299999723,201.62529570100014,None,201.02503738900123,201.4419850659997,203.0418433470004,203.5421644750004,203.0418433470004,None,,,,,,8,001,exponential,gyrb,0.75-0.35,2021_May_18_1715,color_judgement_and_subjective_perception,2020.2.10,59.99478393371033,
2,0.9,training,1000000000000,,0,31,31,31,,,,,,,,,,,,,,,,,204.12647355800073,None,j,1.5755069609986094,204.22648687900073,None,203.6420988560003,204.0503165959999,205.82646073400065,206.32688073999998,205.82646073400065,None,,,,,,8,001,exponential,gyrb,0.75-0.35,2021_May_18_1715,color_judgement_and_subjective_perception,2020.2.10,59.99478393371033,
0,0.9,training,1000,,,,,,0,0,0,0,,,,,,,,,,,,,212.41188328499993,None,None,-1,212.511875305001,None,211.9143957619999,212.3286716090006,213.41183164500035,213.91217112100094,213.41183164500035,None,,,,,,8,001,exponential,gyrb,0.75-0.35,2021_May_18_1715,color_judgement_and_subjective_perception,2020.2.10,59.99478393371033,
3,0.9,training,1000,,,,,,0,1,1,1,,,,,,,,,,,,,214.49637055700077,None,f,0.717589665999185,214.59642748999977,None,214.0120667379997,214.412986491001,215.34622741400017,215.8466308370007,215.34622741400017,None,,,,,,8,001,exponential,gyrb,0.75-0.35,2021_May_18_1715,color_judgement_and_subjective_perception,2020.2.10,59.99478393371033,
0,0.9,training,1000,,,,,,0,2,2,2,,,,,,,,,,,,,216.43005187699964,None,None,-1,216.5288872660003,None,215.94650610200006,216.34695241200097,217.34277110100084,217.73015024800043,217.34277110100084,None,,,,,,8,001,exponential,gyrb,0.75-0.35,2021_May_18_1715,color_judgement_and_subjective_perception,2020.2.10,59.99478393371033,
3,0.9,training,1000,,,,,,0,3,3,3,,,,,,,,,,,,,218.33014191199982,None,k,0.6676473610004905,218.43025094100085,None,217.83018322300086,218.24695252200036,219.13116646799972,219.6312021169997,219.13116646799972,None,,,,,,8,001,exponential,gyrb,0.75-0.35,2021_May_18_1715,color_judgement_and_subjective_perception,2020.2.10,59.99478393371033,
2,0.9,training,1000,,,,,,0,4,4,4,,,,,,,,,,,,,220.23128244700092,None,j,0.5028006140000798,220.33121319100064,None,219.73121637000077,220.14807786500023,220.86457620200053,221.36497814200084,220.86457620200053,None,,,,,,8,001,exponential,gyrb,0.75-0.35,2021_May_18_1715,color_judgement_and_subjective_perception,2020.2.10,59.99478393371033,
1,0.9,training,1000,,,,,,0,5,5,5,,,,,,,,,,,,,221.96503294300055,None,f,0.48896140800025023,222.06503819499994,None,221.46501853900008,221.88181406700096,222.5816664720005,223.0816802950012,222.5816664720005,None,,,,,,8,001,exponential,gyrb,0.75-0.35,2021_May_18_1715,color_judgement_and_subjective_perception,2020.2.10,59.99478393371033,
0,0.9,training,1000,,,,,,0,6,6,6,,,,,,,,,,,,,223.6818115240003,None,d,0.35586423400127387,223.78212969500055,None,223.1817820619999,223.59846693600048,224.16593791000014,224.666280251,224.16593791000014,None,,,,,,8,001,exponential,gyrb,0.75-0.35,2021_May_18_1715,color_judgement_and_subjective_perception,2020.2.10,59.99478393371033,
1,0.9,training,1000,,,,,,0,7,7,7,,,,,,,,,,,,,225.26623642900086,None,d,0.5636989140002697,225.36630488000083,None,224.76612646499962,225.183027993,225.94961929900091,226.449862630001,225.94961929900091,None,,,,,,8,001,exponential,gyrb,0.75-0.35,2021_May_18_1715,color_judgement_and_subjective_perception,2020.2.10,59.99478393371033,
0,0.9,training,1000,,,,,,0,8,8,8,,,,,,,,,,,,,227.04994921100115,None,None,-1,227.1499965790008,None,226.54986253800053,226.96634692200132,228.04973371100095,228.55002932699972,228.04973371100095,None,,,,,,8,001,exponential,gyrb,0.75-0.35,2021_May_18_1715,color_judgement_and_subjective_perception,2020.2.10,59.99478393371033,
2,0.9,training,1000,,,,,,0,9,9,9,,,,,,,,,,,,,229.1345378799997,None,j,0.631742909001332,229.23424497400083,None,228.65014032600084,229.05813848199978,229.88434592399972,230.38461322900002,229.88434592399972,None,,,,,,8,001,exponential,gyrb,0.75-0.35,2021_May_18_1715,color_judgement_and_subjective_perception,2020.2.10,59.99478393371033,
3,0.9,training,1000,,,,,,0,10,10,10,,,,,,,,,,,,,230.98466670900052,None,k,0.6613054320005176,231.08460877400103,None,230.48442746,230.9014294890003,231.768033155,232.2682181550008,231.768033155,None,,,,,,8,001,exponential,gyrb,0.75-0.35,2021_May_18_1715,color_judgement_and_subjective_perception,2020.2.10,59.99478393371033,
0,0.9,training,1000,,,,,,0,11,11,11,,,,,,,,,,,,,232.8682969800011,None,d,0.5855399130014121,232.96844165699986,None,232.36833877699974,232.78496476300097,233.58478640800058,234.06981917200028,233.58478640800058,None,,,,,,8,001,exponential,gyrb,0.75-0.35,2021_May_18_1715,color_judgement_and_subjective_perception,2020.2.10,59.99478393371033,
1,0.9,training,1000,,,,,,0,12,12,12,,,,,,,,,,,,,234.66928600600113,None,f,0.37655475300016406,234.76940394300073,None,234.1693742690004,234.5860903820012,235.16913975700118,235.66945405800107,235.16913975700118,None,,,,,,8,001,exponential,gyrb,0.75-0.35,2021_May_18_1715,color_judgement_and_subjective_perception,2020.2.10,59.99478393371033,
0,0.9,training,1000,,,,,,0,13,13,13,,,,,,,,,,,,,236.2696109669996,None,d,0.8082315739993646,236.3697403240003,None,235.7694583650009,236.1861460729997,237.20290895700055,237.70306115200037,237.20290895700055,None,,,,,,8,001,exponential,gyrb,0.75-0.35,2021_May_18_1715,color_judgement_and_subjective_perception,2020.2.10,59.99478393371033,
1,0.9,training,1000,,,,,,0,14,14,14,,,,,,,,,,,,,238.3032766640008,None,d,0.6786972690006223,238.4031967890005,None,237.80317765499967,238.21990838500096,239.10412819200064,239.6042190670014,239.10412819200064,None,,,,,,8,001,exponential,gyrb,0.75-0.35,2021_May_18_1715,color_judgement_and_subjective_perception,2020.2.10,59.99478393371033,
3,0.9,training,1000,,,,,,0,15,15,15,,,,,,,,,,,,,240.20429139100088,None,k,0.7538091259993962,240.30419652700039,None,239.7042850050002,240.1210950349996,241.08769738000046,241.5880508040009,241.08769738000046,None,,,,,,8,001,exponential,gyrb,0.75-0.35,2021_May_18_1715,color_judgement_and_subjective_perception,2020.2.10,59.99478393371033,
1,0.9,training,1000,,,,,,0,16,16,16,,,,,,,,,,,,,242.1881684180007,None,None,-1,242.28805671400005,None,241.6879674089996,242.10477616900062,243.18798509800035,243.68833011900097,243.18798509800035,None,,,,,,8,001,exponential,gyrb,0.75-0.35,2021_May_18_1715,color_judgement_and_subjective_perception,2020.2.10,59.99478393371033,
3,0.9,training,1000,,,,,,0,17,17,17,,,,,,,,,,,,,244.2724932960009,None,k,0.8533971220003878,244.37259944000107,None,243.78815466699962,244.18923294700107,245.25587349300076,245.75604039100108,245.25587349300076,None,,,,,,8,001,exponential,gyrb,0.75-0.35,2021_May_18_1715,color_judgement_and_subjective_perception,2020.2.10,59.99478393371033,
2,0.9,training,1000,,,,,,0,18,18,18,,,,,,,,,,,,,246.35627317800027,None,j,0.30571692300145514,246.45626690300014,None,245.85585674400136,246.27278700399984,246.78952480500084,247.28966163699988,246.78952480500084,None,,,,,,8,001,exponential,gyrb,0.75-0.35,2021_May_18_1715,color_judgement_and_subjective_perception,2020.2.10,59.99478393371033,
3,0.9,training,1000,,,,,,0,19,19,19,,,,,,,,,,,,,247.88961338599984,None,k,0.8044093509997765,247.98960083600105,None,247.38952065299964,247.8063400810006,248.82304062600087,249.307382848001,248.82304062600087,None,,,,,,8,001,exponential,gyrb,0.75-0.35,2021_May_18_1715,color_judgement_and_subjective_perception,2020.2.10,59.99478393371033,
0,0.9,training,1000,,,,,,0,20,20,20,,,,,,,,,,,,,249.9074435220009,None,None,-1,250.0075738730011,None,249.40746192400002,249.8243504410002,250.90748692600027,251.40774197999963,250.90748692600027,None,,,,,,8,001,exponential,gyrb,0.75-0.35,2021_May_18_1715,color_judgement_and_subjective_perception,2020.2.10,59.99478393371033,
3,0.9,training,1000,,,,,,0,21,21,21,,,,,,,,,,,,,252.00787042699994,None,k,0.7419978819998505,252.10797939199983,None,251.50778084600097,251.924606898001,252.87436569199963,253.37464141000055,252.87436569199963,None,,,,,,8,001,exponential,gyrb,0.75-0.35,2021_May_18_1715,color_judgement_and_subjective_perception,2020.2.10,59.99478393371033,
0,0.9,training,1000,,,,,,0,22,22,22,,,,,,,,,,,,,253.97496859100102,None,d,0.6639556430000084,254.06601826299993,None,253.47459273000095,253.89145452600133,254.7589352190007,255.25896411900067,254.7589352190007,None,,,,,,8,001,exponential,gyrb,0.75-0.35,2021_May_18_1715,color_judgement_and_subjective_perception,2020.2.10,59.99478393371033,
1,0.9,training,1000,,,,,,0,23,23,23,,,,,,,,,,,,,255.8593909760002,None,f,0.5707588060013222,255.95925759800048,None,255.35905007600013,255.7758714419997,256.55928145600046,257.0593528650006,256.55928145600046,None,,,,,,8,001,exponential,gyrb,0.75-0.35,2021_May_18_1715,color_judgement_and_subjective_perception,2020.2.10,59.99478393371033,
2,0.9,training,1000,,,,,,0,24,24,24,,,,,,,,,,,,,257.6595273410003,None,j,0.7305847749994427,257.75943637599994,None,257.1594390650007,257.57623686400075,258.5095709060006,259.0097146090011,258.5095709060006,None,,,,,,8,001,exponential,gyrb,0.75-0.35,2021_May_18_1715,color_judgement_and_subjective_perception,2020.2.10,59.99478393371033,
0,0.9,training,1000,,,,,,0,25,25,25,,,,,,,,,,,,,259.5937819940009,None,None,-1,259.6939744120009,None,259.09374365700023,259.510729222,260.5937743739996,261.09425455900055,260.5937743739996,None,,,,,,8,001,exponential,gyrb,0.75-0.35,2021_May_18_1715,color_judgement_and_subjective_perception,2020.2.10,59.99478393371033,
3,0.9,training,1000,,,,,,0,26,26,26,,,,,,,,,,,,,261.69428738900024,None,k,0.7036839039992628,261.79432527500103,None,261.1940137420006,261.61110274400016,262.5276197479998,263.0278884880008,262.5276197479998,None,,,,,,8,001,exponential,gyrb,0.75-0.35,2021_May_18_1715,color_judgement_and_subjective_perception,2020.2.10,59.99478393371033,
2,0.9,training,1000,,,,,,0,27,27,27,,,,,,,,,,,,,263.62793653600056,None,j,0.3380292299989378,263.7279863310014,None,263.12771974099996,263.544389572,264.08179497700075,264.57890453500113,264.08179497700075,None,,,,,,8,001,exponential,gyrb,0.75-0.35,2021_May_18_1715,color_judgement_and_subjective_perception,2020.2.10,59.99478393371033,
1,0.9,training,1000,,,,,,0,28,28,28,,,,,,,,,,,,,265.1789231490002,None,f,0.5711610279995512,265.27883050700075,None,264.6788150930006,265.0954092440006,265.87893148500007,266.3792115920005,265.87893148500007,None,,,,,,8,001,exponential,gyrb,0.75-0.35,2021_May_18_1715,color_judgement_and_subjective_perception,2020.2.10,59.99478393371033,
2,0.9,training,1000,,,,,,0,29,29,29,,,,,,,,,,,,,266.9792182750007,None,k,0.8507367319998593,267.079189944001,None,266.4792109680002,266.89606024800014,267.9625529900004,268.46274896199975,267.9625529900004,None,,,,,,8,001,exponential,gyrb,0.75-0.35,2021_May_18_1715,color_judgement_and_subjective_perception,2020.2.10,59.99478393371033,
3,0.9,training,1000,,,,,,0,30,30,30,,,,,,,,,,,,,269.06152645099974,None,k,0.5749077159998706,269.147083975,None,268.56280994900044,268.9794564590011,269.74695523100127,270.2471311720001,269.74695523100127,None,,,,,,8,001,exponential,gyrb,0.75-0.35,2021_May_18_1715,color_judgement_and_subjective_perception,2020.2.10,59.99478393371033,
1,0.9,training,1000,,,,,,0,31,31,31,,,,,,,,,,,,,270.8471505430007,None,d,0.6385568599998805,270.9474245680012,None,270.3471087329999,270.76390984000136,271.6139341529997,272.11435132800034,271.6139341529997,None,,,,,,8,001,exponential,gyrb,0.75-0.35,2021_May_18_1715,color_judgement_and_subjective_perception,2020.2.10,59.99478393371033,
2,0.9,training,1000,,,,,,0,32,32,32,,,,,,,,,,,,,272.71411881400127,None,None,-1,272.8141375260002,None,272.2141010690011,272.6308637830007,273.7141865450012,274.1987740200002,273.7141865450012,None,,,,,,8,001,exponential,gyrb,0.75-0.35,2021_May_18_1715,color_judgement_and_subjective_perception,2020.2.10,59.99478393371033,
1,0.9,training,1000,,,,,,0,33,33,33,,,,,,,,,,,,,274.79861252500086,None,f,0.6793102640003781,274.89866756599986,None,274.29844046200014,274.7154746140004,275.5986590930006,276.09894919600083,275.5986590930006,None,,,,,,8,001,exponential,gyrb,0.75-0.35,2021_May_18_1715,color_judgement_and_subjective_perception,2020.2.10,59.99478393371033,
2,0.9,training,1000,,,,,,0,34,34,34,,,,,,,,,,,,,276.69913675800126,None,None,-1,276.79905658700045,None,276.19886821,276.6156454000011,277.69901061699966,278.19913321900094,277.69901061699966,None,,,,,,8,001,exponential,gyrb,0.75-0.35,2021_May_18_1715,color_judgement_and_subjective_perception,2020.2.10,59.99478393371033,
3,0.9,training,1000,,,,,,0,35,35,35,,,,,,,,,,,,,278.799360727,None,k,0.3906855529985478,278.8993143919997,None,278.29923534200134,278.7159790200003,279.31685437300075,279.81692097700034,279.31685437300075,None,,,,,,8,001,exponential,gyrb,0.75-0.35,2021_May_18_1715,color_judgement_and_subjective_perception,2020.2.10,59.99478393371033,
2,0.9,training,1000,,,,,,0,36,36,36,,,,,,,,,,,,,280.41703024900016,None,k,0.46072550999997475,280.5171726890003,None,279.9168927259998,280.33361750600125,281.00027868800134,281.5008519410003,281.00027868800134,None,,,,,,8,001,exponential,gyrb,0.75-0.35,2021_May_18_1715,color_judgement_and_subjective_perception,2020.2.10,59.99478393371033,
0,0.9,training,1000,,,,,,0,37,37,37,,,,,,,,,,,,,282.1008066329996,None,f,0.8011165400002938,282.2008798860006,None,281.60064540700114,282.0173711360003,283.03395687600096,283.53418332399997,283.03395687600096,None,,,,,,8,001,exponential,gyrb,0.75-0.35,2021_May_18_1715,color_judgement_and_subjective_perception,2020.2.10,59.99478393371033,
1,0.9,training,1000,,,,,,0,38,38,38,,,,,,,,,,,,,284.1185030630004,None,d,0.8473954059991229,284.21860415000083,None,283.6340803100011,284.05092921899995,285.08500296199963,285.58532272699995,285.08500296199963,None,,,,,,8,001,exponential,gyrb,0.75-0.35,2021_May_18_1715,color_judgement_and_subjective_perception,2020.2.10,59.99478393371033,
2,0.9,training,1000,,,,,,0,39,39,39,,,,,,,,,,,,,286.1853583459997,None,j,0.5245088320007198,286.28548428400063,None,285.68515802600086,286.10214242800066,286.83542665800087,287.335550537,286.83542665800087,None,,,,,,8,001,exponential,gyrb,0.75-0.35,2021_May_18_1715,color_judgement_and_subjective_perception,2020.2.10,59.99478393371033,
0,0.9,training,1000,,,,,,0,40,40,40,,,,,,,,,,,,,287.9356033080003,None,f,0.8062718669989408,288.03565736100063,None,287.4355648890014,287.85232330300096,288.8686676850011,289.353355958001,288.8686676850011,None,,,,,,8,001,exponential,gyrb,0.75-0.35,2021_May_18_1715,color_judgement_and_subjective_perception,2020.2.10,59.99478393371033,
2,0.9,training,1000,,,,,,0,41,41,41,,,,,,,,,,,,,289.95349343700036,None,None,-1,290.0534645690004,None,289.4531685150014,289.87003527399975,290.95351616600055,291.45382218099985,290.95351616600055,None,,,,,,8,001,exponential,gyrb,0.75-0.35,2021_May_18_1715,color_judgement_and_subjective_perception,2020.2.10,59.99478393371033,
1,0.9,training,1000,,,,,,0,42,42,42,,,,,,,,,,,,,292.05369619500016,None,None,-1,292.1537800650003,None,291.5537714020011,291.97055922800064,293.0538912560005,293.55381546300123,293.0538912560005,None,,,,,,8,001,exponential,gyrb,0.75-0.35,2021_May_18_1715,color_judgement_and_subjective_perception,2020.2.10,59.99478393371033,
0,0.9,training,1000,,,,,,0,43,43,43,,,,,,,,,,,,,294.1384523830002,None,d,0.6117340860000695,294.23824693900133,None,293.65410520099977,294.06953400100065,294.8715501309998,295.3717155260001,294.8715501309998,None,,,,,,8,001,exponential,gyrb,0.75-0.35,2021_May_18_1715,color_judgement_and_subjective_perception,2020.2.10,59.99478393371033,
2,0.9,training,1000,,,,,,0,44,44,44,,,,,,,,,,,,,295.9717752760007,None,j,0.5141490580008394,296.07185111800027,None,295.4718202639997,295.88858972600065,296.60531061800066,297.1055952879997,296.60531061800066,None,,,,,,8,001,exponential,gyrb,0.75-0.35,2021_May_18_1715,color_judgement_and_subjective_perception,2020.2.10,59.99478393371033,
3,0.9,training,1000,,,,,,0,45,45,45,,,,,,,,,,,,,297.70549169900005,None,k,0.28453347599861445,297.8054829060002,None,297.20538363800006,297.6220560490001,298.1220893160007,298.622363071001,298.1220893160007,None,,,,,,8,001,exponential,gyrb,0.75-0.35,2021_May_18_1715,color_judgement_and_subjective_perception,2020.2.10,59.99478393371033,
1,0.9,training,1000,,,,,,0,46,46,46,,,,,,,,,,,,,299.2066570099996,None,f,0.44741328400050406,299.3066024010004,None,298.7223166210006,299.12323327500053,299.773388945001,300.2732828420012,299.773388945001,None,,,,,,8,001,exponential,gyrb,0.75-0.35,2021_May_18_1715,color_judgement_and_subjective_perception,2020.2.10,59.99478393371033,
3,0.9,training,1000,,,,,,0,47,47,47,,,,,,,,,,,,,300.8734554450002,None,d,0.22058930499952112,300.9734278880005,None,300.37330022199967,300.79009136199966,301.22333810300006,301.72371819900036,301.22333810300006,None,,,,,,8,001,exponential,gyrb,0.75-0.35,2021_May_18_1715,color_judgement_and_subjective_perception,2020.2.10,59.99478393371033,
3,0.9,training,1000,,,,,,0,48,48,48,,,,,,,,,,,,,302.32383954800025,None,None,-1,302.4236362160009,None,301.8236288879998,302.2405228380012,303.32349652300036,303.82404082799985,303.32349652300036,None,,,,,,8,001,exponential,gyrb,0.75-0.35,2021_May_18_1715,color_judgement_and_subjective_perception,2020.2.10,59.99478393371033,
0,0.9,training,1000,,,,,,0,49,49,49,,,,,,,,,,,,,304.4080947050006,None,d,0.5737304129997938,304.5082936529998,None,303.9238884960014,304.3249398480002,305.1080562980005,305.60844826500033,305.1080562980005,None,,,,,,8,001,exponential,gyrb,0.75-0.35,2021_May_18_1715,color_judgement_and_subjective_perception,2020.2.10,59.99478393371033,
3,0.9,training,1000,,,,,,0,50,50,50,,,,,,,,,,,,,306.2085017919999,None,None,-1,306.3084940959998,None,305.7082035760013,306.125175307001,307.20856515800006,307.70854908900037,307.20856515800006,None,,,,,,8,001,exponential,gyrb,0.75-0.35,2021_May_18_1715,color_judgement_and_subjective_perception,2020.2.10,59.99478393371033,
2,0.9,training,1000,,,,,,0,51,51,51,,,,,,,,,,,,,308.30873933300063,None,j,0.48920782599998347,308.40878680400056,None,307.8086539120013,308.22527961800006,308.92539967800076,309.4096713910003,308.92539967800076,None,,,,,,8,001,exponential,gyrb,0.75-0.35,2021_May_18_1715,color_judgement_and_subjective_perception,2020.2.10,59.99478393371033,
0,0.9,training,1000,,,,,,0,52,52,52,,,,,,,,,,,,,310.0096886709998,None,d,0.6361942929997895,310.1098144740008,None,309.50963993700134,309.92653573999996,310.7764139210012,311.2767256900006,310.7764139210012,None,,,,,,8,001,exponential,gyrb,0.75-0.35,2021_May_18_1715,color_judgement_and_subjective_perception,2020.2.10,59.99478393371033,
0,0.9,training,1000,,,,,,0,53,53,53,,,,,,,,,,,,,311.87673941700086,None,d,0.4812906249990192,311.97670285500135,None,311.3765359580011,311.7934964830001,312.47677404299975,312.97698221800056,312.47677404299975,None,,,,,,8,001,exponential,gyrb,0.75-0.35,2021_May_18_1715,color_judgement_and_subjective_perception,2020.2.10,59.99478393371033,
0,0.9,training,1000,,,,,,0,54,54,54,,,,,,,,,,,,,313.57706153300023,None,d,0.5009186339993903,313.67706948399973,None,313.07689117300106,313.49361772799966,314.1947043700002,314.6947091359998,314.1947043700002,None,,,,,,8,001,exponential,gyrb,0.75-0.35,2021_May_18_1715,color_judgement_and_subjective_perception,2020.2.10,59.99478393371033,
2,0.9,training,1000,,,,,,0,55,55,55,,,,,,,,,,,,,315.2948179270006,None,j,0.519139289001032,315.39485496199995,None,314.7944342290011,315.21136123200085,315.94468914500067,316.44498358800047,315.94468914500067,None,,,,,,8,001,exponential,gyrb,0.75-0.35,2021_May_18_1715,color_judgement_and_subjective_perception,2020.2.10,59.99478393371033,
2,0.9,training,1000,,,,,,0,56,56,56,,,,,,,,,,,,,317.0451599780008,None,j,0.44880220600134635,317.1451814390002,None,316.54501042599986,316.9617682730004,317.61175252700014,318.11188705600034,317.61175252700014,None,,,,,,8,001,exponential,gyrb,0.75-0.35,2021_May_18_1715,color_judgement_and_subjective_perception,2020.2.10,59.99478393371033,
2,0.9,training,1000,,,,,,0,57,57,57,,,,,,,,,,,,,318.7119735230008,None,j,0.30997680599830346,318.81203476300107,None,318.211871593001,318.628733902,319.14594930600106,319.6463563360012,319.14594930600106,None,,,,,,8,001,exponential,gyrb,0.75-0.35,2021_May_18_1715,color_judgement_and_subjective_perception,2020.2.10,59.99478393371033,
3,0.9,training,1000,,,,,,0,58,58,58,,,,,,,,,,,,,320.2462440110012,None,k,0.35186717299984593,320.34613881900077,None,319.7461355590003,320.1629937580001,320.7295993030002,321.2298937249998,320.7295993030002,None,,,,,,8,001,exponential,gyrb,0.75-0.35,2021_May_18_1715,color_judgement_and_subjective_perception,2020.2.10,59.99478393371033,
1,0.9,training,1000,,,,,,0,59,59,59,,,,,,,,,,,,,321.82997600199997,None,f,0.8559612019998895,321.93005262299994,None,321.3298446059998,321.7467271510013,322.8134162290007,323.3133969620012,322.8134162290007,None,,,,,,8,001,exponential,gyrb,0.75-0.35,2021_May_18_1715,color_judgement_and_subjective_perception,2020.2.10,59.99478393371033,
0,0.9,training,1000,,,,,,0,60,60,60,,,,,,,,,,,,,323.91333739200127,None,d,0.5884274670006562,324.0135847190013,None,323.41343693100134,323.8302115210008,324.6310941990014,325.1312337489999,324.6310941990014,None,,,,,,8,001,exponential,gyrb,0.75-0.35,2021_May_18_1715,color_judgement_and_subjective_perception,2020.2.10,59.99478393371033,
2,0.9,training,1000,,,,,,0,61,61,61,,,,,,,,,,,,,325.7313517020011,None,j,0.5707077589995606,325.83130239599996,None,325.2310054110003,325.6479124760008,326.43141307100086,326.93145680100133,326.43141307100086,None,,,,,,8,001,exponential,gyrb,0.75-0.35,2021_May_18_1715,color_judgement_and_subjective_perception,2020.2.10,59.99478393371033,
3,0.9,training,1000,,,,,,0,62,62,62,,,,,,,,,,,,,327.5315455609998,None,k,0.76251308800056,327.63137901200025,None,327.0316659830005,327.4482493070009,328.4148918580013,328.915187736,328.4148918580013,None,,,,,,8,001,exponential,gyrb,0.75-0.35,2021_May_18_1715,color_judgement_and_subjective_perception,2020.2.10,59.99478393371033,
2,0.9,training,1000,,,,,,0,63,63,63,,,,,,,,,,,,,329.4992970680014,None,j,0.8266651560006721,329.5993762100006,None,329.0151513640012,329.4161576790011,330.4494923180009,330.9496501270005,330.4494923180009,None,,,,,,8,001,exponential,gyrb,0.75-0.35,2021_May_18_1715,color_judgement_and_subjective_perception,2020.2.10,59.99478393371033,
1,0.9,training,1000,,,,,,0,64,64,64,,,,,,,,,,,,,331.54987356700076,None,f,0.8722118890000274,331.64980476100027,None,331.049532807001,331.46650418100035,332.54976238400013,333.0499639050013,332.54976238400013,None,,,,,,8,001,exponential,gyrb,0.75-0.35,2021_May_18_1715,color_judgement_and_subjective_perception,2020.2.10,59.99478393371033,
1,0.9,training,1000,,,,,,0,65,65,65,,,,,,,,,,,,,333.6500353980009,None,f,0.5638127260008332,333.7501747100014,None,333.14995182500024,333.5667042990008,334.33431494700017,334.8344150860012,334.33431494700017,None,,,,,,8,001,exponential,gyrb,0.75-0.35,2021_May_18_1715,color_judgement_and_subjective_perception,2020.2.10,59.99478393371033,
0,0.9,training,1000,,,,,,0,66,66,66,,,,,,,,,,,,,335.4344799070004,None,d,0.4516323949992511,335.53438372600067,None,334.93434546699973,335.3510780050001,336.01774637000017,336.51798040799986,336.01774637000017,None,,,,,,8,001,exponential,gyrb,0.75-0.35,2021_May_18_1715,color_judgement_and_subjective_perception,2020.2.10,59.99478393371033,
0,0.9,training,1000,,,,,,0,67,67,67,,,,,,,,,,,,,337.11810825500106,None,d,0.48020031599844515,337.2178101030004,None,336.6180935780012,337.0347756230003,337.71793982300005,338.21812771900113,337.71793982300005,None,,,,,,8,001,exponential,gyrb,0.75-0.35,2021_May_18_1715,color_judgement_and_subjective_perception,2020.2.10,59.99478393371033,
3,0.9,training,1000,,,,,,0,68,68,68,,,,,,,,,,,,,338.8182851069996,None,k,0.7955749610009661,338.91834101899985,None,338.3181324920006,338.7349927819996,339.7359862310004,340.23600219500076,339.7359862310004,None,,,,,,8,001,exponential,gyrb,0.75-0.35,2021_May_18_1715,color_judgement_and_subjective_perception,2020.2.10,59.99478393371033,
1,0.9,training,1000,,,,,,0,69,69,69,,,,,,,,,,,,,340.8360050090014,None,f,0.6498783299994102,340.936107214,None,340.33603798900003,340.7527072040011,341.60283618799986,342.103131408001,341.60283618799986,None,,,,,,8,001,exponential,gyrb,0.75-0.35,2021_May_18_1715,color_judgement_and_subjective_perception,2020.2.10,59.99478393371033,
3,0.9,training,1000,,,,,,0,70,70,70,,,,,,,,,,,,,342.7030579170005,None,d,0.8789869330012152,342.80301667599997,None,342.2029588389996,342.61979982900084,343.70307456500086,344.1875779889997,343.70307456500086,None,,,,,,8,001,exponential,gyrb,0.75-0.35,2021_May_18_1715,color_judgement_and_subjective_perception,2020.2.10,59.99478393371033,
1,0.9,training,1000,,,,,,0,71,71,71,,,,,,,,,,,,,344.7873638740002,None,None,-1,344.88740311400034,None,344.2876246800006,344.70426133300134,345.7876804770003,346.28777913500016,345.7876804770003,None,,,,,,8,001,exponential,gyrb,0.75-0.35,2021_May_18_1715,color_judgement_and_subjective_perception,2020.2.10,59.99478393371033,
3,0.9,training,1000,,,,,,0,72,72,72,,,,,,,,,,,,,346.8879026120012,None,k,0.7099793180004781,346.9880161710007,None,346.38786226200136,346.8044811239997,347.7211368930002,348.2213948259996,347.7211368930002,None,,,,,,8,001,exponential,gyrb,0.75-0.35,2021_May_18_1715,color_judgement_and_subjective_perception,2020.2.10,59.99478393371033,
1,0.9,training,1000,,,,,,0,73,73,73,,,,,,,,,,,,,348.82148075900113,None,f,0.7684613589990477,348.9215900800009,None,348.3213584040004,348.7380946000012,349.72201776400107,350.22237612200115,349.72201776400107,None,,,,,,8,001,exponential,gyrb,0.75-0.35,2021_May_18_1715,color_judgement_and_subjective_perception,2020.2.10,59.99478393371033,
3,0.9,training,1000,,,,,,0,74,74,74,,,,,,,,,,,,,350.8224716780005,None,k,0.7112678080011392,350.92264797200005,None,350.3222618400014,350.739272058001,351.6562470890003,352.15624688200114,351.6562470890003,None,,,,,,8,001,exponential,gyrb,0.75-0.35,2021_May_18_1715,color_judgement_and_subjective_perception,2020.2.10,59.99478393371033,
1,0.9,training,1000,,,,,,0,75,75,75,,,,,,,,,,,,,352.7561987879999,None,f,0.5937720820002141,352.8562553520005,None,352.2561651320011,352.67290752700137,353.4730361910006,353.97314677400027,353.4730361910006,None,,,,,,8,001,exponential,gyrb,0.75-0.35,2021_May_18_1715,color_judgement_and_subjective_perception,2020.2.10,59.99478393371033,
3,0.9,training,1000,,,,,,0,76,76,76,,,,,,,,,,,,,354.55739266100136,None,None,-1,354.6574924209999,None,354.0730577450013,354.4741399020004,355.5572794290001,356.05747593200067,355.5572794290001,None,,,,,,8,001,exponential,gyrb,0.75-0.35,2021_May_18_1715,color_judgement_and_subjective_perception,2020.2.10,59.99478393371033,
2,0.9,training,1000,,,,,,0,77,77,77,,,,,,,,,,,,,356.65763712100124,None,j,0.4042899579999357,356.757710029,None,356.1575532650004,356.5744364210004,357.1910012360004,357.6910461340012,357.1910012360004,None,,,,,,8,001,exponential,gyrb,0.75-0.35,2021_May_18_1715,color_judgement_and_subjective_perception,2020.2.10,59.99478393371033,
0,0.9,training,1000,,,,,,0,78,78,78,,,,,,,,,,,,,358.29121874700104,None,None,-1,358.39130845,None,357.79107178400045,358.20793934700123,359.27552970500074,359.7757125450007,359.27552970500074,None,,,,,,8,001,exponential,gyrb,0.75-0.35,2021_May_18_1715,color_judgement_and_subjective_perception,2020.2.10,59.99478393371033,
1,0.9,training,1000,,,,,,0,79,79,79,,,,,,,,,,,,,360.3756096720008,None,f,0.5501588719998836,360.4757269840011,None,359.8754084780012,360.29229214299994,361.0589804680003,361.55931627300015,361.0589804680003,None,,,,,,8,001,exponential,gyrb,0.75-0.35,2021_May_18_1715,color_judgement_and_subjective_perception,2020.2.10,59.99478393371033,
3,0.9,training,1000,,,,,,0,80,80,80,,,,,,,,,,,,,362.1593130070014,None,k,0.4707721920003678,362.25919936399987,None,361.65929500400125,362.07609488399976,362.75929933500083,363.2595112380004,362.75929933500083,None,,,,,,8,001,exponential,gyrb,0.75-0.35,2021_May_18_1715,color_judgement_and_subjective_perception,2020.2.10,59.99478393371033,
2,0.9,training,1000,,,,,,0,81,81,81,,,,,,,,,,,,,363.85954708200006,None,j,0.5144251359997725,363.959595706001,None,363.3594162240006,363.77619275100005,364.49375351100025,364.99386351000066,364.49375351100025,None,,,,,,8,001,exponential,gyrb,0.75-0.35,2021_May_18_1715,color_judgement_and_subjective_perception,2020.2.10,59.99478393371033,
3,0.9,training,1000,,,,,,0,82,82,82,,,,,,,,,,,,,365.59400490200096,None,k,0.571868307000841,365.6941395410013,None,365.0938154450014,365.5104880210001,366.29393788699963,366.79426512400096,366.29393788699963,None,,,,,,8,001,exponential,gyrb,0.75-0.35,2021_May_18_1715,color_judgement_and_subjective_perception,2020.2.10,59.99478393371033,
2,0.9,training,1000,,,,,,0,83,83,83,,,,,,,,,,,,,367.394284117001,None,None,-1,367.4943217689997,None,366.8942360510009,367.3107940380014,368.39419180500045,368.89445644700027,368.39419180500045,None,,,,,,8,001,exponential,gyrb,0.75-0.35,2021_May_18_1715,color_judgement_and_subjective_perception,2020.2.10,59.99478393371033,
2,0.9,training,1000,,,,,,0,84,84,84,,,,,,,,,,,,,369.4787847740008,None,j,0.4311571679991175,369.5788265650008,None,368.99445243599985,369.3955193710008,370.0286698150012,370.528732226001,370.0286698150012,None,,,,,,8,001,exponential,gyrb,0.75-0.35,2021_May_18_1715,color_judgement_and_subjective_perception,2020.2.10,59.99478393371033,
2,0.9,training,1000,,,,,,0,85,85,85,,,,,,,,,,,,,371.128996458001,None,j,0.43691980699986743,371.2290947220008,None,370.62887051600046,371.04560741000023,371.6956690019997,372.19571814899973,371.6956690019997,None,,,,,,8,001,exponential,gyrb,0.75-0.35,2021_May_18_1715,color_judgement_and_subjective_perception,2020.2.10,59.99478393371033,
3,0.9,training,1000,,,,,,0,86,86,86,,,,,,,,,,,,,372.79579897500116,None,k,0.6500163349992363,372.8958665400005,None,372.29584719000013,372.7125661600003,373.5792101240004,374.0794116039997,373.5792101240004,None,,,,,,8,001,exponential,gyrb,0.75-0.35,2021_May_18_1715,color_judgement_and_subjective_perception,2020.2.10,59.99478393371033,
2,0.9,training,1000,,,,,,0,87,87,87,,,,,,,,,,,,,374.66368332599995,None,None,-1,374.7635985120014,None,374.16351726799985,374.5804741890006,375.6636932620004,376.1638855710007,375.6636932620004,None,,,,,,8,001,exponential,gyrb,0.75-0.35,2021_May_18_1715,color_judgement_and_subjective_perception,2020.2.10,59.99478393371033,
1,0.9,training,1000,,,,,,0,88,88,88,,,,,,,,,,,,,376.76403136000044,None,f,0.7299463769995782,376.8640561840002,None,376.263854281,376.68084453400115,377.61397553200004,378.11414256600074,377.61397553200004,None,,,,,,8,001,exponential,gyrb,0.75-0.35,2021_May_18_1715,color_judgement_and_subjective_perception,2020.2.10,59.99478393371033,
0,0.9,training,1000,,,,,,0,89,89,89,,,,,,,,,,,,,378.7142090540001,None,d,0.32369911199930357,378.8143116629999,None,378.21417917800136,378.63101146200097,379.1651548940008,379.6653902859998,379.1651548940008,None,,,,,,8,001,exponential,gyrb,0.75-0.35,2021_May_18_1715,color_judgement_and_subjective_perception,2020.2.10,59.99478393371033,
0,0.9,training,1000,,,,,,0,90,90,90,,,,,,,,,,,,,380.2653688400005,None,d,0.324657038998339,380.36535769500006,None,379.76520374600113,380.18190475200026,380.71542390800096,381.21554999100044,380.71542390800096,None,,,,,,8,001,exponential,gyrb,0.75-0.35,2021_May_18_1715,color_judgement_and_subjective_perception,2020.2.10,59.99478393371033,
1,0.9,training,1000,,,,,,0,91,91,91,,,,,,,,,,,,,381.81583334599964,None,f,0.39031168099973,381.9156966540013,None,381.31548383300105,381.73241291500017,382.33227266200083,382.8323485260007,382.33227266200083,None,,,,,,8,001,exponential,gyrb,0.75-0.35,2021_May_18_1715,color_judgement_and_subjective_perception,2020.2.10,59.99478393371033,
0,0.9,training,1000,,,,,,0,92,92,92,,,,,,,,,,,,,383.4322214620006,None,f,0.709611677999419,383.53239505700003,None,382.93245921000016,383.3491454160012,384.2667664239998,384.7670752140002,384.2667664239998,None,,,,,,8,001,exponential,gyrb,0.75-0.35,2021_May_18_1715,color_judgement_and_subjective_perception,2020.2.10,59.99478393371033,
1,0.9,training,1000,,,,,,0,93,93,93,,,,,,,,,,,,,385.3670389939998,None,f,0.6548957989998598,385.4670143980002,None,384.866723825,385.28365499400024,386.15027909499986,386.6506562459999,386.15027909499986,None,,,,,,8,001,exponential,gyrb,0.75-0.35,2021_May_18_1715,color_judgement_and_subjective_perception,2020.2.10,59.99478393371033,
0,0.9,training,1000,,,,,,0,94,94,94,,,,,,,,,,,,,387.2506490329997,None,d,0.4114598690011917,387.3505954430002,None,386.75061162100064,387.167305414001,387.78392229400015,388.2841670050002,387.78392229400015,None,,,,,,8,001,exponential,gyrb,0.75-0.35,2021_May_18_1715,color_judgement_and_subjective_perception,2020.2.10,59.99478393371033,
1,0.9,training,1000,,,,,,0,95,95,95,,,,,,,,,,,,,388.8843321479999,None,f,0.689690518000134,388.98430768100116,None,388.3841129800003,388.8005800210012,389.7016511210004,390.20178627899986,389.7016511210004,None,,,,,,8,001,exponential,gyrb,0.75-0.35,2021_May_18_1715,color_judgement_and_subjective_perception,2020.2.10,59.99478393371033,
2,0.75,testing,1000,1,,,,,,,,,0,0,0,0,0,0,0,2,,,,,407.80701565100026,None,None,-1,407.90693726300015,None,407.30922849000126,407.72348821800006,408.8070210820006,409.2913165700011,408.8070210820006,None,29,10,0,,,8,001,exponential,gyrb,0.75-0.35,2021_May_18_1715,color_judgement_and_subjective_perception,2020.2.10,59.99478393371033,
1,0.75,testing,1000,1,,,,,,,,,0,0,0,0,0,1,1,1,,,,,409.89144019299965,None,None,-1,409.9913993959999,None,409.39137157200093,409.80820166100057,410.89151391000087,411.3914597559997,410.89151391000087,None,38,38,0,,,8,001,exponential,gyrb,0.75-0.35,2021_May_18_1715,color_judgement_and_subjective_perception,2020.2.10,59.99478393371033,
3,0.75,testing,1000,1,,,,,,,,,0,0,0,0,0,2,2,3,,,,,411.99178024200046,None,None,-1,412.09197665600004,None,411.4915077200003,411.9082619920009,412.99179769200055,413.49209837700073,412.99179769200055,None,0,0,52,,,8,001,exponential,gyrb,0.75-0.35,2021_May_18_1715,color_judgement_and_subjective_perception,2020.2.10,59.99478393371033,
0,0.75,testing,1000,1,,,,,,,,,0,0,0,0,0,3,3,0,,,,,414.09212600499995,None,None,-1,414.1764161179999,None,413.5919338620006,414.00886879500104,415.07625711699984,415.5765349480007,415.07625711699984,None,0,43,0,,,8,001,exponential,gyrb,0.75-0.35,2021_May_18_1715,color_judgement_and_subjective_perception,2020.2.10,59.99478393371033,
1,0.75,testing,1000,1,,,,,,,,,0,0,0,0,1,0,4,1,,,,,416.1765918689998,None,k,0.31722001699927205,416.27672333400005,None,415.6763121470012,416.0933513740001,416.62633208900115,417.126673494,416.62633208900115,None,42,42,0,,,8,001,exponential,gyrb,0.75-0.35,2021_May_18_1715,color_judgement_and_subjective_perception,2020.2.10,59.99478393371033,
0,0.75,testing,1000,1,,,,,,,,,0,0,0,0,1,1,5,0,,,,,417.72678807900047,None,None,-1,417.8268338750004,None,417.2267114410006,417.64335688600113,418.72681203200045,419.2111591470002,418.72681203200045,None,0,46,0,,,8,001,exponential,gyrb,0.75-0.35,2021_May_18_1715,color_judgement_and_subjective_perception,2020.2.10,59.99478393371033,
2,0.75,testing,1000,1,,,,,,,,,0,0,0,0,1,2,6,2,,,,,419.81115973600026,None,f,0.38671347400122613,419.9112680770013,None,419.31124654500127,419.72800350200123,420.32771877600135,420.827960564,420.32771877600135,None,36,12,0,,,8,001,exponential,gyrb,0.75-0.35,2021_May_18_1715,color_judgement_and_subjective_perception,2020.2.10,59.99478393371033,
3,0.75,testing,1000,1,,,,,,,,,0,0,0,0,1,3,7,3,,,,,421.42816841199965,None,None,-1,421.5283057150009,None,420.92799467400073,421.344874366001,422.4281661840014,422.92841777099966,422.4281661840014,None,0,0,58,,,8,001,exponential,gyrb,0.75-0.35,2021_May_18_1715,color_judgement_and_subjective_perception,2020.2.10,59.99478393371033,
2,0.75,testing,1000,1,,,,,,,,,0,0,0,0,2,0,8,2,,,,,423.528561430001,None,None,-1,423.62837321200095,None,423.028330688001,423.44506672900025,424.5128877269999,425.0128157119998,424.5128877269999,None,39,13,0,,,8,001,exponential,gyrb,0.75-0.35,2021_May_18_1715,color_judgement_and_subjective_perception,2020.2.10,59.99478393371033,
1,0.75,testing,1000,1,,,,,,,,,0,0,0,0,2,1,9,1,,,,,425.61302635500033,None,None,-1,425.71291609000036,None,425.1127822569997,425.5296317200009,426.6131206170012,427.11327949299994,426.6131206170012,None,48,48,0,,,8,001,exponential,gyrb,0.75-0.35,2021_May_18_1715,color_judgement_and_subjective_perception,2020.2.10,59.99478393371033,
3,0.75,testing,1000,1,,,,,,,,,0,0,0,0,2,2,10,3,,,,,427.71327317299983,None,None,-1,427.8133018240005,None,427.2131529920007,427.6299332990002,428.7133838589998,429.19776099200135,428.7133838589998,None,0,0,62,,,8,001,exponential,gyrb,0.75-0.35,2021_May_18_1715,color_judgement_and_subjective_perception,2020.2.10,59.99478393371033,
0,0.75,testing,1000,1,,,,,,,,,0,0,0,0,2,3,11,0,,,,,429.7978178499998,None,None,-1,429.89765372200054,None,429.29778032800095,429.71453872300117,430.7976984720008,431.2982192740001,430.7976984720008,None,0,53,0,,,8,001,exponential,gyrb,0.75-0.35,2021_May_18_1715,color_judgement_and_subjective_perception,2020.2.10,59.99478393371033,
2,0.75,testing,1000,1,,,,,,,,,0,0,0,0,3,0,12,2,,,,,431.8982166630012,None,d,0.5477410630010127,431.998256537001,None,431.39790530400023,431.8148300339999,432.5647344219997,433.06496823999987,432.5647344219997,None,44,15,0,,,8,001,exponential,gyrb,0.75-0.35,2021_May_18_1715,color_judgement_and_subjective_perception,2020.2.10,59.99478393371033,
0,0.75,testing,1000,1,,,,,,,,,0,0,0,0,3,1,13,0,,,,,433.66502186599973,None,None,-1,433.7650181839999,None,433.1649359210005,433.5816590450013,434.6491598450011,435.14939913499984,434.6491598450011,None,0,56,0,,,8,001,exponential,gyrb,0.75-0.35,2021_May_18_1715,color_judgement_and_subjective_perception,2020.2.10,59.99478393371033,
1,0.75,testing,1000,1,,,,,,,,,0,0,0,0,3,2,14,1,,,,,435.7494263440003,None,None,-1,435.8495431700012,None,435.24930840100023,435.66617690400017,436.74958004899963,437.24964804699994,436.74958004899963,None,54,54,0,,,8,001,exponential,gyrb,0.75-0.35,2021_May_18_1715,color_judgement_and_subjective_perception,2020.2.10,59.99478393371033,
3,0.75,testing,1000,1,,,,,,,,,0,0,0,0,3,3,15,3,,,,,437.8497953540009,None,None,-1,437.9497516770007,None,437.3496602539999,437.7665217169997,438.8498226419997,439.3340901219999,438.8498226419997,None,0,0,68,,,8,001,exponential,gyrb,0.75-0.35,2021_May_18_1715,color_judgement_and_subjective_perception,2020.2.10,59.99478393371033,
2,0.75,testing,1000,1,,,,,,,,,0,0,0,0,4,0,16,2,,,,,439.9342194560013,None,None,-1,440.0342802610012,None,439.4340709930002,439.8509376680013,440.9342521360013,441.4346576040007,440.9342521360013,None,49,16,0,,,8,001,exponential,gyrb,0.75-0.35,2021_May_18_1715,color_judgement_and_subjective_perception,2020.2.10,59.99478393371033,
1,0.75,testing,1000,1,,,,,,,,,0,0,0,0,4,1,17,1,,,,,442.0346985360011,None,None,-1,442.13478411899996,None,441.5344457610008,441.95136990300125,443.0345356200014,443.534904139,443.0345356200014,None,58,58,0,,,8,001,exponential,gyrb,0.75-0.35,2021_May_18_1715,color_judgement_and_subjective_perception,2020.2.10,59.99478393371033,
0,0.75,testing,1000,1,,,,,,,,,0,0,0,0,4,2,18,0,,,,,444.1262876870005,None,None,-1,444.21922676900067,None,443.6347210310014,444.05157073100054,445.1190678790008,445.61925293400054,445.1190678790008,None,0,62,0,,,8,001,exponential,gyrb,0.75-0.35,2021_May_18_1715,color_judgement_and_subjective_perception,2020.2.10,59.99478393371033,
3,0.75,testing,1000,1,,,,,,,,,0,0,0,0,4,3,19,3,,,,,446.219342847,None,None,-1,446.31936269400103,None,445.719191350001,446.1361262010014,447.2194481160004,447.71952407699973,447.2194481160004,None,0,0,73,,,8,001,exponential,gyrb,0.75-0.35,2021_May_18_1715,color_judgement_and_subjective_perception,2020.2.10,59.99478393371033,
0,0.75,testing,1000,1,,,,,,,,,0,0,0,0,5,0,20,0,,,,,448.3197941159997,None,None,-1,448.4197471309999,None,447.81958352200127,448.2362276399999,449.3039437080006,449.80401716100096,449.3039437080006,None,0,65,0,,,8,001,exponential,gyrb,0.75-0.35,2021_May_18_1715,color_judgement_and_subjective_perception,2020.2.10,59.99478393371033,
2,0.75,testing,1000,1,,,,,,,,,0,0,0,0,5,1,21,2,,,,,450.40424822500063,None,j,0.6577775349996955,450.5042159229997,None,449.90403901600075,450.3208980520012,451.1874872919998,451.68788869200034,451.1874872919998,None,55,18,0,,,8,001,exponential,gyrb,0.75-0.35,2021_May_18_1715,color_judgement_and_subjective_perception,2020.2.10,59.99478393371033,
1,0.75,testing,1000,1,,,,,,,,,0,0,0,0,5,2,22,1,,,,,452.28778533700097,None,f,0.7423269070004608,452.38768131800134,None,451.7877900270014,452.2045621899997,453.15453649200026,453.6546585449996,453.15453649200026,None,64,64,0,,,8,001,exponential,gyrb,0.75-0.35,2021_May_18_1715,color_judgement_and_subjective_perception,2020.2.10,59.99478393371033,
3,0.75,testing,1000,1,,,,,,,,,0,0,0,0,5,3,23,3,,,,,454.2389882050011,None,k,0.4871523920010077,454.33885809800086,None,453.7545963720004,454.1555897270009,454.8554586829996,455.3557097970006,454.8554586829996,None,0,0,78,,,8,001,exponential,gyrb,0.75-0.35,2021_May_18_1715,color_judgement_and_subjective_perception,2020.2.10,59.99478393371033,
2,0.75,testing,1000,1,,,,,,,,,0,0,0,0,6,0,24,2,,,,,455.9558139660003,None,j,0.5940575570002693,456.0559108870002,None,455.45568474100037,455.87250402800055,456.6724346589999,457.17286311000134,456.6724346589999,None,59,20,0,,,8,001,exponential,gyrb,0.75-0.35,2021_May_18_1715,color_judgement_and_subjective_perception,2020.2.10,59.99478393371033,
3,0.75,testing,1000,1,,,,,,,,,0,0,0,0,6,1,25,3,,,,,457.77280141200026,None,k,0.6012204039998323,457.87276514600126,None,457.2726332800012,457.68944335500055,458.5060277650009,459.0063073580004,458.5060277650009,None,0,0,79,,,8,001,exponential,gyrb,0.75-0.35,2021_May_18_1715,color_judgement_and_subjective_perception,2020.2.10,59.99478393371033,
1,0.75,testing,1000,1,,,,,,,,,0,0,0,0,6,2,26,1,,,,,459.59078346299975,None,d,0.8472938849990896,459.69073080100134,None,459.1061574340001,459.5072433969999,460.55727100200056,461.0573344430013,460.55727100200056,None,65,65,0,,,8,001,exponential,gyrb,0.75-0.35,2021_May_18_1715,color_judgement_and_subjective_perception,2020.2.10,59.99478393371033,
0,0.75,testing,1000,1,,,,,,,,,0,0,0,0,6,3,27,0,,,,,461.65774629500083,None,d,0.4842986759995256,461.7576981710008,None,461.157374366001,461.57427368500066,462.27421605900054,462.77435678800066,462.27421605900054,None,0,69,0,,,8,001,exponential,gyrb,0.75-0.35,2021_May_18_1715,color_judgement_and_subjective_perception,2020.2.10,59.99478393371033,
0,0.75,testing,1000,1,,,,,,,,,0,0,0,0,7,0,28,0,,,,,463.37451936599973,None,d,0.40753436100021645,463.4744821100012,None,462.87425334100044,463.29114818000016,463.9078296890002,464.3922259500014,463.9078296890002,None,0,71,0,,,8,001,exponential,gyrb,0.75-0.35,2021_May_18_1715,color_judgement_and_subjective_perception,2020.2.10,59.99478393371033,
3,0.75,testing,1000,1,,,,,,,,,0,0,0,0,7,1,29,3,,,,,464.9921666580012,None,k,0.6538321539992467,465.0921559110011,None,464.4919273200012,464.908869977,465.7753971940001,466.2757189760014,465.7753971940001,None,0,0,80,,,8,001,exponential,gyrb,0.75-0.35,2021_May_18_1715,color_judgement_and_subjective_perception,2020.2.10,59.99478393371033,
2,0.75,testing,1000,1,,,,,,,,,0,0,0,0,7,2,30,2,,,,,466.8759034699997,None,j,0.5220509049995599,466.97596399900067,None,466.37560211799973,466.79256685400105,467.5256953040007,468.025942010001,467.5256953040007,None,58,19,0,,,8,001,exponential,gyrb,0.75-0.35,2021_May_18_1715,color_judgement_and_subjective_perception,2020.2.10,59.99478393371033,
1,0.75,testing,1000,1,,,,,,,,,0,0,0,0,7,3,31,1,,,,,468.62609096100095,None,d,0.8437698800007638,468.7262457980014,None,468.125883662,468.54280019700127,469.59346357100003,470.09382443600043,469.59346357100003,None,65,65,0,,,8,001,exponential,gyrb,0.75-0.35,2021_May_18_1715,color_judgement_and_subjective_perception,2020.2.10,59.99478393371033,
1,0.75,testing,1000,1,,,,,,,,,0,0,0,0,8,0,32,1,,,,,470.6937519109997,None,d,0.5280534899993654,470.79386627700114,None,470.19373877900034,470.6104959580007,471.3438475889998,471.8438503640009,471.3438475889998,None,67,67,0,,,8,001,exponential,gyrb,0.75-0.35,2021_May_18_1715,color_judgement_and_subjective_perception,2020.2.10,59.99478393371033,
0,0.75,testing,1000,1,,,,,,,,,0,0,0,0,8,1,33,0,,,,,472.4439422980013,None,d,0.4978361159992346,472.5441428820013,None,471.94409387000087,472.3606099999997,473.0607312920001,473.56091182900127,473.0607312920001,None,0,71,0,,,8,001,exponential,gyrb,0.75-0.35,2021_May_18_1715,color_judgement_and_subjective_perception,2020.2.10,59.99478393371033,
2,0.75,testing,1000,1,,,,,,,,,0,0,0,0,8,2,34,2,,,,,474.14539818900084,None,j,0.7247033109997574,474.2453081880012,None,473.66099008400124,474.07770616000016,474.9951494350007,475.49524630400083,474.9951494350007,None,61,20,0,,,8,001,exponential,gyrb,0.75-0.35,2021_May_18_1715,color_judgement_and_subjective_perception,2020.2.10,59.99478393371033,
3,0.75,testing,1000,1,,,,,,,,,0,0,0,0,8,3,35,3,,,,,476.09559961299965,None,k,0.4543926059996011,476.195599349001,None,475.59540344200104,476.01216144499995,476.6788777239999,477.17899719399975,476.6788777239999,None,0,0,83,,,8,001,exponential,gyrb,0.75-0.35,2021_May_18_1715,color_judgement_and_subjective_perception,2020.2.10,59.99478393371033,
2,0.75,testing,1000,1,,,,,,,,,0,0,0,0,9,0,36,2,,,,,477.7789704269999,None,k,0.41891160500017577,477.87908014500135,None,477.2789887510007,477.6957999740007,478.32895252900016,478.82925870500003,478.32895252900016,None,60,20,0,,,8,001,exponential,gyrb,0.75-0.35,2021_May_18_1715,color_judgement_and_subjective_perception,2020.2.10,59.99478393371033,
1,0.75,testing,1000,1,,,,,,,,,0,0,0,0,9,1,37,1,,,,,479.41357944800075,None,None,-1,479.5136598580011,None,478.92930016399987,479.33018285400067,480.4134975650013,480.9137553319997,480.4134975650013,None,71,71,0,,,8,001,exponential,gyrb,0.75-0.35,2021_May_18_1715,color_judgement_and_subjective_perception,2020.2.10,59.99478393371033,
0,0.75,testing,1000,1,,,,,,,,,0,0,0,0,9,2,38,0,,,,,481.51394443200115,None,d,0.6280880770009389,481.6139274140005,None,481.01365029500084,481.4305898190014,482.2638448790003,482.7640346150001,482.2638448790003,None,0,75,0,,,8,001,exponential,gyrb,0.75-0.35,2021_May_18_1715,color_judgement_and_subjective_perception,2020.2.10,59.99478393371033,
3,0.75,testing,1000,1,,,,,,,,,0,0,0,0,9,3,39,3,,,,,483.36415050800133,None,j,0.7058878349998849,483.46412781599975,None,482.8640523810009,483.2807757650007,484.1983495220011,484.69825665400094,484.1983495220011,None,0,0,84,,,8,001,exponential,gyrb,0.75-0.35,2021_May_18_1715,color_judgement_and_subjective_perception,2020.2.10,59.99478393371033,
3,0.75,testing,1000,1,,,,,,,,,0,0,0,0,10,0,40,3,,,,,485.2985086940007,None,k,0.5632649640010641,485.39871990600113,None,484.7984058820002,485.2152061200013,485.9818544030004,486.4821353490006,485.9818544030004,None,0,0,86,,,8,001,exponential,gyrb,0.75-0.35,2021_May_18_1715,color_judgement_and_subjective_perception,2020.2.10,59.99478393371033,
0,0.75,testing,1000,1,,,,,,,,,0,0,0,0,10,1,41,0,,,,,487.08218457600015,None,j,0.5476949690000765,487.1823286510007,None,486.58212933899995,486.99909989200023,487.7488265840002,488.24905722100084,487.7488265840002,None,0,77,0,,,8,001,exponential,gyrb,0.75-0.35,2021_May_18_1715,color_judgement_and_subjective_perception,2020.2.10,59.99478393371033,
2,0.75,testing,1000,1,,,,,,,,,0,0,0,0,10,2,42,2,,,,,488.8491796670005,None,j,0.6367982009996922,488.9491952030003,None,488.34894909800096,488.7656184360003,489.61655194500054,490.1168141979997,489.61655194500054,None,67,22,0,,,8,001,exponential,gyrb,0.75-0.35,2021_May_18_1715,color_judgement_and_subjective_perception,2020.2.10,59.99478393371033,
1,0.75,testing,1000,1,,,,,,,,,0,0,0,0,10,3,43,1,,,,,490.71680824800023,None,None,-1,490.8168440240006,None,490.21658858500086,490.633469503,491.71705476900024,492.2170195859999,491.71705476900024,None,78,78,0,,,8,001,exponential,gyrb,0.75-0.35,2021_May_18_1715,color_judgement_and_subjective_perception,2020.2.10,59.99478393371033,
3,0.75,testing,1000,1,,,,,,,,,0,0,0,0,11,0,44,3,,,,,492.8171435430013,None,None,-1,492.91722158500124,None,492.3170184570008,492.73383127300076,493.8172868210004,494.30159648100016,493.8172868210004,None,0,0,91,,,8,001,exponential,gyrb,0.75-0.35,2021_May_18_1715,color_judgement_and_subjective_perception,2020.2.10,59.99478393371033,
1,0.75,testing,1000,1,,,,,,,,,0,0,0,0,11,1,45,1,,,,,494.90158149200033,None,d,0.8643653150011232,495.0016389709999,None,494.40154685200105,494.8184713339997,495.88498521099973,496.38540767700033,495.88498521099973,None,81,81,0,,,8,001,exponential,gyrb,0.75-0.35,2021_May_18_1715,color_judgement_and_subjective_perception,2020.2.10,59.99478393371033,
0,0.75,testing,1000,1,,,,,,,,,0,0,0,0,11,2,46,0,,,,,496.9855169530001,None,d,0.4047069209991605,497.08537663900097,None,496.48522395800137,496.9021659420014,497.51854544600064,498.0188703290005,497.51854544600064,None,0,83,0,,,8,001,exponential,gyrb,0.75-0.35,2021_May_18_1715,color_judgement_and_subjective_perception,2020.2.10,59.99478393371033,
2,0.75,testing,1000,1,,,,,,,,,0,0,0,0,11,3,47,2,,,,,498.61894263199974,None,j,0.6190188210002816,498.71899132100043,None,498.1187852050007,498.5356800560003,499.36969403200055,499.86983037699974,499.36969403200055,None,73,24,0,,,8,001,exponential,gyrb,0.75-0.35,2021_May_18_1715,color_judgement_and_subjective_perception,2020.2.10,59.99478393371033,
0,0.75,testing,1000,1,,,,,,,,,0,0,0,0,12,0,48,0,,,,,500.46996428199964,None,d,0.47204156900079397,500.5699539569996,None,499.96982548600135,500.38667867300137,501.0698339290011,501.57027500300137,501.0698339290011,None,0,86,0,,,8,001,exponential,gyrb,0.75-0.35,2021_May_18_1715,color_judgement_and_subjective_perception,2020.2.10,59.99478393371033,
1,0.75,testing,1000,1,,,,,,,,,0,0,0,0,12,1,49,1,,,,,502.1701661850002,None,d,0.32388273299875436,502.27013029299997,None,501.67028946699975,502.08694649800054,502.6201228460013,503.120400318001,502.6201228460013,None,86,86,0,,,8,001,exponential,gyrb,0.75-0.35,2021_May_18_1715,color_judgement_and_subjective_perception,2020.2.10,59.99478393371033,
2,0.75,testing,1000,1,,,,,,,,,0,0,0,0,12,2,50,2,,,,,503.7205925569997,None,j,0.5974419619997207,503.8205651040007,None,503.22038453300047,503.637171974,504.43799809899974,504.938147451001,504.43799809899974,None,75,25,0,,,8,001,exponential,gyrb,0.75-0.35,2021_May_18_1715,color_judgement_and_subjective_perception,2020.2.10,59.99478393371033,
3,0.75,testing,1000,1,,,,,,,,,0,0,0,0,12,3,51,3,,,,,505.53816783600087,None,k,0.30775766799888515,505.6382354699999,None,505.0380924070014,505.4548941390003,505.97128488100134,506.4717470930009,505.97128488100134,None,0,0,99,,,8,001,exponential,gyrb,0.75-0.35,2021_May_18_1715,color_judgement_and_subjective_perception,2020.2.10,59.99478393371033,
3,0.75,testing,1000,1,,,,,,,,,0,0,0,0,13,0,52,3,,,,,507.07191937599964,None,k,0.5182031059994188,507.1717970110003,None,506.571810378,506.98861534200114,507.72166608299995,508.22197357000005,507.72166608299995,None,0,0,99,,,8,001,exponential,gyrb,0.75-0.35,2021_May_18_1715,color_judgement_and_subjective_perception,2020.2.10,59.99478393371033,
1,0.75,testing,1000,1,,,,,,,,,0,0,0,0,13,1,53,1,,,,,508.8221411960003,None,None,-1,508.9221773420013,None,508.32186877800086,508.73887360700064,509.8061469430013,510.3063562770003,509.8061469430013,None,87,87,0,,,8,001,exponential,gyrb,0.75-0.35,2021_May_18_1715,color_judgement_and_subjective_perception,2020.2.10,59.99478393371033,
2,0.75,testing,1000,1,,,,,,,,,0,0,0,0,13,2,54,2,,,,,510.9064943789999,None,j,0.8034329330002947,511.0065825689999,None,510.406395385,510.82325974299965,511.84005677300047,512.3401880300007,511.84005677300047,None,74,25,0,,,8,001,exponential,gyrb,0.75-0.35,2021_May_18_1715,color_judgement_and_subjective_perception,2020.2.10,59.99478393371033,
0,0.75,testing,1000,1,,,,,,,,,0,0,0,0,13,3,55,0,,,,,512.9402769980006,None,d,0.8497412619999523,513.0402555540004,None,512.4401816950012,512.8566836090013,513.9069803950006,514.3913945350014,513.9069803950006,None,0,88,0,,,8,001,exponential,gyrb,0.75-0.35,2021_May_18_1715,color_judgement_and_subjective_perception,2020.2.10,59.99478393371033,
3,0.75,testing,1000,1,,,,,,,,,0,0,0,0,14,0,56,3,,,,,514.9912790110011,None,k,0.6147593339992454,515.0912610739997,None,514.4911252040001,514.9078558930014,515.7246965640006,516.2248570620013,515.7246965640006,None,0,0,100,,,8,001,exponential,gyrb,0.75-0.35,2021_May_18_1715,color_judgement_and_subjective_perception,2020.2.10,59.99478393371033,
0,0.75,testing,1000,1,,,,,,,,,0,0,0,0,14,1,57,0,,,,,516.8250034240009,None,d,0.5570757999994385,516.9249297290007,None,516.3248432720011,516.7417521719999,517.5081961140004,518.0084491920006,517.5081961140004,None,0,85,0,,,8,001,exponential,gyrb,0.75-0.35,2021_May_18_1715,color_judgement_and_subjective_perception,2020.2.10,59.99478393371033,
1,0.75,testing,1000,1,,,,,,,,,0,0,0,0,14,2,58,1,,,,,518.608612723001,None,f,0.6614341909989889,518.7085729040009,None,518.1084641890011,518.5252579300013,519.3928565189999,519.8928806860004,519.3928565189999,None,87,87,0,,,8,001,exponential,gyrb,0.75-0.35,2021_May_18_1715,color_judgement_and_subjective_perception,2020.2.10,59.99478393371033,
2,0.75,testing,1000,1,,,,,,,,,0,0,0,0,14,3,59,2,,,,,520.4930247860011,None,j,0.36906836699927226,520.5929182569998,None,519.9929207880014,520.4096458790009,520.9930013430003,521.4932923180004,520.9930013430003,None,70,23,0,,,8,001,exponential,gyrb,0.75-0.35,2021_May_18_1715,color_judgement_and_subjective_perception,2020.2.10,59.99478393371033,
3,0.75,testing,1000,1,,,,,,,,,0,0,0,0,15,0,60,3,,,,,522.0933735660001,None,k,0.5928531549998297,522.1931533830011,None,521.5931928160007,522.0099448239998,522.8098988519996,523.3100864200005,522.8098988519996,None,0,0,95,,,8,001,exponential,gyrb,0.75-0.35,2021_May_18_1715,color_judgement_and_subjective_perception,2020.2.10,59.99478393371033,
1,0.75,testing,1000,1,,,,,,,,,0,0,0,0,15,1,61,1,,,,,523.9102410989999,None,f,0.6557955960015533,524.0101984280009,None,523.4100457510012,523.8269370990001,524.6942527580013,525.1945270880005,524.6942527580013,None,85,85,0,,,8,001,exponential,gyrb,0.75-0.35,2021_May_18_1715,color_judgement_and_subjective_perception,2020.2.10,59.99478393371033,
2,0.75,testing,1000,1,,,,,,,,,0,0,0,0,15,2,62,2,,,,,525.7947118780012,None,k,0.7715434599995206,525.8944436279999,None,525.294470674,525.7113295190011,526.6947373950006,527.1950248530011,526.6947373950006,None,66,22,0,,,8,001,exponential,gyrb,0.75-0.35,2021_May_18_1715,color_judgement_and_subjective_perception,2020.2.10,59.99478393371033,
0,0.75,testing,1000,1,,,,,,,,,0,0,0,0,15,3,63,0,,,,,527.7950009180004,None,None,-1,527.895014537,None,527.2947860690001,527.7116090910004,528.7948947290006,529.2793710570004,528.7948947290006,None,0,80,0,,,8,001,exponential,gyrb,0.75-0.35,2021_May_18_1715,color_judgement_and_subjective_perception,2020.2.10,59.99478393371033,
2,0.75,testing,1000,1,,,,,,,,,0,0,0,0,16,0,64,2,,,,,529.8793479859996,None,None,-1,529.9793335230006,None,529.379346836,529.7962249890006,530.8794170010005,531.3796535450001,530.8794170010005,None,69,23,0,,,8,001,exponential,gyrb,0.75-0.35,2021_May_18_1715,color_judgement_and_subjective_perception,2020.2.10,59.99478393371033,
0,0.75,testing,1000,1,,,,,,,,,0,0,0,0,16,1,65,0,,,,,531.9798221310011,None,None,-1,532.0798952320001,None,531.4797173549996,531.8964942210005,532.9795325739997,533.4798691840006,532.9795325739997,None,0,83,0,,,8,001,exponential,gyrb,0.75-0.35,2021_May_18_1715,color_judgement_and_subjective_perception,2020.2.10,59.99478393371033,
3,0.75,testing,1000,1,,,,,,,,,0,0,0,0,16,2,66,3,,,,,534.0802177200003,None,k,0.5892421030002879,534.164757306,None,533.5795763120004,533.996554329,534.7807601940003,535.2809719280012,534.7807601940003,None,0,0,96,,,8,001,exponential,gyrb,0.75-0.35,2021_May_18_1715,color_judgement_and_subjective_perception,2020.2.10,59.99478393371033,
1,0.75,testing,1000,1,,,,,,,,,0,0,0,0,16,3,67,1,,,,,535.8810608410004,None,f,0.40483368300010625,535.9810890810004,None,535.3810529800012,535.797698937,536.4146063019998,536.8980990250002,536.4146063019998,None,90,90,0,,,8,001,exponential,gyrb,0.75-0.35,2021_May_18_1715,color_judgement_and_subjective_perception,2020.2.10,59.99478393371033,
3,0.75,testing,1000,1,,,,,,,,,0,0,0,0,17,0,68,3,,,,,537.4083227669998,None,None,-1,537.4659425350001,None,536.9978880400013,537.3630992280014,537.9886255870006,538.331700701001,537.9886255870006,None,0,0,97,,,8,001,exponential,gyrb,0.75-0.35,2021_May_18_1715,color_judgement_and_subjective_perception,2020.2.10,59.99478393371033,
1,0.75,testing,1000,1,,,,,,,,,0,0,0,0,17,1,69,1,,,,,538.9315362270008,None,k,0.5623340500005725,539.031681976001,None,538.4314453970001,538.848272706,539.6156373290014,540.115823487,539.6156373290014,None,93,93,0,,,8,001,exponential,gyrb,0.75-0.35,2021_May_18_1715,color_judgement_and_subjective_perception,2020.2.10,59.99478393371033,
2,0.75,testing,1000,1,,,,,,,,,0,0,0,0,17,2,70,2,,,,,540.715926967001,None,d,0.5540764289999061,540.8159356640008,None,540.2157896230001,540.6326935380002,541.3994186569998,541.8995099130007,541.3994186569998,None,76,25,0,,,8,001,exponential,gyrb,0.75-0.35,2021_May_18_1715,color_judgement_and_subjective_perception,2020.2.10,59.99478393371033,
0,0.75,testing,1000,1,,,,,,,,,0,0,0,0,17,3,71,0,,,,,542.4996261590004,None,k,0.882212136999442,542.599768733,None,541.9995642209997,542.4163747889997,543.4995901689999,543.9999186360001,543.4995901689999,None,0,90,0,,,8,001,exponential,gyrb,0.75-0.35,2021_May_18_1715,color_judgement_and_subjective_perception,2020.2.10,59.99478393371033,
2,0.75,testing,1000,1,,,,,,,,,0,0,0,0,18,0,72,2,,,,,544.5841947879999,None,j,0.4378848249998555,544.6841489710005,None,544.0998354040003,544.5007411220013,545.1507332649999,545.6510137330006,545.1507332649999,None,79,26,0,,,8,001,exponential,gyrb,0.75-0.35,2021_May_18_1715,color_judgement_and_subjective_perception,2020.2.10,59.99478393371033,
1,0.75,testing,1000,1,,,,,,,,,0,0,0,0,18,1,73,1,,,,,546.2511015460004,None,j,0.31486942599985923,546.3511356460003,None,545.7509101590003,546.1678128720014,546.6842039200001,547.1844413100007,546.6842039200001,None,98,98,0,,,8,001,exponential,gyrb,0.75-0.35,2021_May_18_1715,color_judgement_and_subjective_perception,2020.2.10,59.99478393371033,
3,0.75,testing,1000,1,,,,,,,,,0,0,0,0,18,2,74,3,,,,,547.7845364620007,None,k,0.5893949259989313,547.8845815559998,None,547.284442817001,547.7012476489999,548.5011413720003,549.0013920230012,548.5011413720003,None,0,0,104,,,8,001,exponential,gyrb,0.75-0.35,2021_May_18_1715,color_judgement_and_subjective_perception,2020.2.10,59.99478393371033,
0,0.75,testing,1000,1,,,,,,,,,0,0,0,0,18,3,75,0,,,,,549.5855373970007,None,d,0.57241431500006,549.6856007450006,None,549.1015431970009,549.5023842940009,550.2855486700009,550.7858330970012,550.2855486700009,None,0,95,0,,,8,001,exponential,gyrb,0.75-0.35,2021_May_18_1715,color_judgement_and_subjective_perception,2020.2.10,59.99478393371033,
1,0.75,testing,1000,1,,,,,,,,,0,0,0,0,19,0,76,1,,,,,551.3860990490011,None,j,0.3478537530008907,551.4861604440011,None,550.8856333760014,551.3026268070007,551.8526748830009,552.3526978560003,551.8526748830009,None,102,102,0,,,8,001,exponential,gyrb,0.75-0.35,2021_May_18_1715,color_judgement_and_subjective_perception,2020.2.10,59.99478393371033,
2,0.75,testing,1000,1,,,,,,,,,0,0,0,0,19,1,77,2,,,,,552.952794281,None,j,0.645185085999401,553.0528342710004,None,552.4526947070008,552.8694745720004,553.7195678050011,554.2039672210012,553.7195678050011,None,85,28,0,,,8,001,exponential,gyrb,0.75-0.35,2021_May_18_1715,color_judgement_and_subjective_perception,2020.2.10,59.99478393371033,
0,0.75,testing,1000,1,,,,,,,,,0,0,0,0,19,2,78,0,,,,,554.8041319310014,None,d,0.46589489100006176,554.9041048079998,None,554.3040361340009,554.7206289730002,555.3871963660004,555.8874021030006,555.3871963660004,None,0,99,0,,,8,001,exponential,gyrb,0.75-0.35,2021_May_18_1715,color_judgement_and_subjective_perception,2020.2.10,59.99478393371033,
3,0.75,testing,1000,1,,,,,,,,,0,0,0,0,19,3,79,3,,,,,556.4876814130002,None,j,0.6703039770000032,556.5876691060002,None,555.9873992650009,556.4042970010014,557.2874942430008,557.78774428,557.2874942430008,None,0,0,110,,,8,001,exponential,gyrb,0.75-0.35,2021_May_18_1715,color_judgement_and_subjective_perception,2020.2.10,59.99478393371033,
0,0.75,testing,1000,1,,,,,,,,,0,0,0,0,20,0,80,0,,,,,558.3878938800008,None,f,0.62612663300024,558.4878806529996,None,557.8877107389999,558.3045761930007,559.1378085880006,559.6221491670003,559.1378085880006,None,0,102,0,,,8,001,exponential,gyrb,0.75-0.35,2021_May_18_1715,color_judgement_and_subjective_perception,2020.2.10,59.99478393371033,
1,0.75,testing,1000,1,,,,,,,,,0,0,0,0,20,1,81,1,,,,,560.2223209390013,None,j,0.5597053429992229,560.3222894999999,None,559.7221612570011,560.1388348560013,560.9056185850004,561.4057811790008,560.9056185850004,None,108,108,0,,,8,001,exponential,gyrb,0.75-0.35,2021_May_18_1715,color_judgement_and_subjective_perception,2020.2.10,59.99478393371033,
3,0.75,testing,1000,1,,,,,,,,,0,0,0,0,20,2,82,3,,,,,562.0059708740009,None,k,0.6479644139999436,562.106023159,None,561.5057089620004,561.9226739530004,562.7725525759997,563.2727763809999,562.7725525759997,None,0,0,114,,,8,001,exponential,gyrb,0.75-0.35,2021_May_18_1715,color_judgement_and_subjective_perception,2020.2.10,59.99478393371033,
2,0.75,testing,1000,1,,,,,,,,,0,0,0,0,20,3,83,2,,,,,563.8728695380014,None,j,0.3170522569998866,563.9729685399998,None,563.3725594200005,563.7896121129997,564.3070090769997,564.807101249,564.3070090769997,None,92,31,0,,,8,001,exponential,gyrb,0.75-0.35,2021_May_18_1715,color_judgement_and_subjective_perception,2020.2.10,59.99478393371033,
2,0.75,testing,1000,1,,,,,,,,,0,0,0,0,21,0,84,2,,,,,565.4071323930002,None,j,0.6788325059987983,565.5071969119999,None,564.9070582250006,565.323825503001,566.2072229570003,566.7074422639998,566.2072229570003,None,92,31,0,,,8,001,exponential,gyrb,0.75-0.35,2021_May_18_1715,color_judgement_and_subjective_perception,2020.2.10,59.99478393371033,
1,0.75,testing,1000,1,,,,,,,,,0,0,0,0,21,1,85,1,,,,,567.3073693040005,None,f,0.690527654998732,567.4074671050003,None,566.8074030850003,567.2242510810011,568.1241138389996,568.6243301810009,568.1241138389996,None,113,113,0,,,8,001,exponential,gyrb,0.75-0.35,2021_May_18_1715,color_judgement_and_subjective_perception,2020.2.10,59.99478393371033,
0,0.75,testing,1000,1,,,,,,,,,0,0,0,0,21,2,86,0,,,,,569.2087093219998,None,d,0.5492997199999081,569.3087077,None,568.7243892469996,569.1410794029998,569.8751011990007,570.3754708209999,569.8751011990007,None,0,107,0,,,8,001,exponential,gyrb,0.75-0.35,2021_May_18_1715,color_judgement_and_subjective_perception,2020.2.10,59.99478393371033,
3,0.75,testing,1000,1,,,,,,,,,0,0,0,0,21,3,87,3,,,,,570.9754772140004,None,j,0.5423583529991447,571.0756379070008,None,570.4753462780009,570.8921920800003,571.6422611039998,572.1424755490007,571.6422611039998,None,0,0,116,,,8,001,exponential,gyrb,0.75-0.35,2021_May_18_1715,color_judgement_and_subjective_perception,2020.2.10,59.99478393371033,
2,0.75,testing,1000,1,,,,,,,,,0,0,0,0,22,0,88,2,,,,,572.7424908360008,None,j,0.5274858009997843,572.8424358000011,None,572.2422145420005,572.659140916001,573.3923696769998,573.8926686530012,573.3923696769998,None,91,30,0,,,8,001,exponential,gyrb,0.75-0.35,2021_May_18_1715,color_judgement_and_subjective_perception,2020.2.10,59.99478393371033,
1,0.75,testing,1000,1,,,,,,,,,0,0,0,0,22,1,89,1,,,,,574.4768042570013,None,f,0.5211551420015894,574.5768672100003,None,573.9923919129997,574.3935890890007,575.1269254870003,575.6269683190003,575.1269254870003,None,114,114,0,,,8,001,exponential,gyrb,0.75-0.35,2021_May_18_1715,color_judgement_and_subjective_perception,2020.2.10,59.99478393371033,
0,0.75,testing,1000,1,,,,,,,,,0,0,0,0,22,2,90,0,,,,,576.2271983480005,None,j,0.5147643260006589,576.3272567490003,None,575.7269564630005,576.1438691720014,576.860513615,577.3605306680001,576.860513615,None,0,108,0,,,8,001,exponential,gyrb,0.75-0.35,2021_May_18_1715,color_judgement_and_subjective_perception,2020.2.10,59.99478393371033,
3,0.75,testing,1000,1,,,,,,,,,0,0,0,0,22,3,91,3,,,,,577.9606786420009,None,k,0.7652846709988808,578.0607118099997,None,577.4604872970012,577.8774524920009,578.8440598600009,579.3284279420004,578.8440598600009,None,0,0,119,,,8,001,exponential,gyrb,0.75-0.35,2021_May_18_1715,color_judgement_and_subjective_perception,2020.2.10,59.99478393371033,
2,0.75,testing,1000,1,,,,,,,,,0,0,0,0,23,0,92,2,,,,,579.9286660360012,None,j,0.42149587699896074,580.0285230160007,None,579.4283821059998,579.8450873640013,580.4784546339997,580.9787857419997,580.4784546339997,None,92,31,0,,,8,001,exponential,gyrb,0.75-0.35,2021_May_18_1715,color_judgement_and_subjective_perception,2020.2.10,59.99478393371033,
3,0.75,testing,1000,1,,,,,,,,,0,0,0,0,23,1,93,3,,,,,581.5788900120006,None,k,0.4191259990002436,581.6788815060008,None,581.0786240060006,581.4957037420008,582.1287766519999,582.6288795740002,582.1287766519999,None,0,0,120,,,8,001,exponential,gyrb,0.75-0.35,2021_May_18_1715,color_judgement_and_subjective_perception,2020.2.10,59.99478393371033,
1,0.75,testing,1000,1,,,,,,,,,0,0,0,0,23,2,94,1,,,,,583.229053299001,None,f,0.6409793069997249,583.3290351169999,None,582.7289325889997,583.145734103,583.995736578001,584.4802025980007,583.995736578001,None,114,114,0,,,8,001,exponential,gyrb,0.75-0.35,2021_May_18_1715,color_judgement_and_subjective_perception,2020.2.10,59.99478393371033,
0,0.75,testing,1000,1,,,,,,,,,0,0,0,0,23,3,95,0,,,,,585.080252275,None,d,0.2857627230005164,585.1802331210001,None,584.5800455950011,584.9967694770003,585.4966025140002,585.9968341530002,585.4966025140002,None,0,108,0,,,8,001,exponential,gyrb,0.75-0.35,2021_May_18_1715,color_judgement_and_subjective_perception,2020.2.10,59.99478393371033,
1,0.75,testing,1000,1,,,,,,,,,0,0,0,0,,,,,0,0,0,1,596.3503625060002,None,f,0.8156434460015589,596.4503586910014,None,595.8497459629998,596.2667470190008,597.2855004720004,597.7838093530008,597.2855004720004,None,113,113,0,586.1093723590002,None,8,001,exponential,gyrb,0.75-0.35,2021_May_18_1715,color_judgement_and_subjective_perception,2020.2.10,59.99478393371033,
2,0.75,testing,1000,1,,,,,,,,,0,0,0,0,,,,,0,1,1,2,598.383818575001,None,None,-1,598.4838513690011,None,597.8835463260002,598.3005523800002,599.3685884000006,599.868312138,599.3685884000006,None,86,29,0,None,None,8,001,exponential,gyrb,0.75-0.35,2021_May_18_1715,color_judgement_and_subjective_perception,2020.2.10,59.99478393371033,
1,0.75,testing,1000,1,,,,,,,,,0,0,0,0,,,,,0,2,2,1,600.4682673300013,None,f,0.7856664730006742,600.5682924840003,None,599.9681273780006,600.3849392430002,601.3864754170008,601.8852341849997,601.3864754170008,None,112,112,0,None,None,8,001,exponential,gyrb,0.75-0.35,2021_May_18_1715,color_judgement_and_subjective_perception,2020.2.10,59.99478393371033,
3,0.75,testing,1000,1,,,,,,,,,0,0,0,0,,,,,0,3,3,3,602.4853704270008,None,k,0.3926092409983539,602.585372896001,None,601.98511005,602.4018470810006,603.0018206519999,603.5019975530013,603.0018206519999,None,0,0,119,None,None,8,001,exponential,gyrb,0.75-0.35,2021_May_18_1715,color_judgement_and_subjective_perception,2020.2.10,59.99478393371033,
3,0.75,testing,1000,1,,,,,,,,,0,0,0,0,,,,,1,0,4,3,604.1021811770006,None,k,0.5030531009997503,604.1868983920012,None,603.6018464010012,604.0189463240004,604.7197208819998,605.2198691209996,604.7197208819998,None,0,0,117,None,None,8,001,exponential,gyrb,0.75-0.35,2021_May_18_1715,color_judgement_and_subjective_perception,2020.2.10,59.99478393371033,
0,0.75,testing,1000,1,,,,,,,,,0,0,0,0,,,,,1,1,5,0,605.8199702069996,None,d,0.4660510140001861,605.919958253,None,605.3196680239998,605.736607537001,606.4034059020014,606.9034887409998,606.4034059020014,None,0,107,0,None,None,8,001,exponential,gyrb,0.75-0.35,2021_May_18_1715,color_judgement_and_subjective_perception,2020.2.10,59.99478393371033,
2,0.75,testing,1000,1,,,,,,,,,0,0,0,0,,,,,1,2,6,2,607.5035649860001,None,j,0.4144119590000628,607.6035919250007,None,607.0032800950012,607.420296186001,608.0368915600011,608.5369629730012,608.0368915600011,None,86,29,0,None,None,8,001,exponential,gyrb,0.75-0.35,2021_May_18_1715,color_judgement_and_subjective_perception,2020.2.10,59.99478393371033,
2,0.75,testing,1000,1,,,,,,,,,0,0,0,0,,,,,1,3,7,2,609.137055995001,None,j,0.6926310310009285,609.2213618759997,None,608.6369317160006,609.0538319940006,609.9377508630005,610.4380513720007,609.9377508630005,None,86,29,0,None,None,8,001,exponential,gyrb,0.75-0.35,2021_May_18_1715,color_judgement_and_subjective_perception,2020.2.10,59.99478393371033,
1,0.75,testing,1000,1,,,,,,,,,0,0,0,0,,,,,2,0,8,1,611.0382248210008,None,None,-1,611.1382732370002,None,610.5380112390012,610.9548018759997,612.038747781,612.5383691839997,612.038747781,None,107,107,0,None,None,8,001,exponential,gyrb,0.75-0.35,2021_May_18_1715,color_judgement_and_subjective_perception,2020.2.10,59.99478393371033,
0,0.75,testing,1000,1,,,,,,,,,0,0,0,0,,,,,2,1,9,0,613.1385406090012,None,d,0.3234684159997414,613.238513712,None,612.6381765780006,613.0551698449999,613.590141996001,614.0886154660002,613.590141996001,None,0,106,0,None,None,8,001,exponential,gyrb,0.75-0.35,2021_May_18_1715,color_judgement_and_subjective_perception,2020.2.10,59.99478393371033,
0,0.75,testing,1000,1,,,,,,,,,0,0,0,0,,,,,2,2,10,0,614.6729389829998,None,d,0.4691242449989659,614.7728564879999,None,614.1838373150003,614.589600108,615.2727792610003,615.7730904910004,615.2727792610003,None,0,104,0,None,None,8,001,exponential,gyrb,0.75-0.35,2021_May_18_1715,color_judgement_and_subjective_perception,2020.2.10,59.99478393371033,
0,0.75,testing,1000,1,,,,,,,,,0,0,0,0,,,,,2,3,11,0,616.3732529469999,None,d,0.5126672239985055,616.4733377749999,None,615.8729382769998,616.2896964299998,617.0065322030005,617.5067075959996,617.0065322030005,None,0,102,0,None,None,8,001,exponential,gyrb,0.75-0.35,2021_May_18_1715,color_judgement_and_subjective_perception,2020.2.10,59.99478393371033,
0,0.75,testing,1000,1,,,,,,,,,0,0,0,0,,,,,3,0,12,0,618.1067358910004,None,d,0.6192777810010739,618.2067349930003,None,617.6065058460008,618.0234133829999,618.8567779710011,619.3411930230013,618.8567779710011,None,0,100,0,None,None,8,001,exponential,gyrb,0.75-0.35,2021_May_18_1715,color_judgement_and_subjective_perception,2020.2.10,59.99478393371033,
2,0.75,testing,1000,1,,,,,,,,,0,0,0,0,,,,,3,1,13,2,619.9412081480004,None,j,0.6649753420006164,620.0410346640001,None,619.4409277920004,619.8577829429996,620.7244839049999,621.2247801450012,620.7244839049999,None,81,27,0,None,None,8,001,exponential,gyrb,0.75-0.35,2021_May_18_1715,color_judgement_and_subjective_perception,2020.2.10,59.99478393371033,
3,0.75,testing,1000,1,,,,,,,,,0,0,0,0,,,,,3,2,14,3,621.8249178630012,None,k,0.37309610699958284,621.9249171230003,None,621.3245502170012,621.741611200001,622.3247327950012,622.8248873100001,622.3247327950012,None,0,0,108,None,None,8,001,exponential,gyrb,0.75-0.35,2021_May_18_1715,color_judgement_and_subjective_perception,2020.2.10,59.99478393371033,
1,0.75,testing,1000,1,,,,,,,,,0,0,0,0,,,,,3,3,15,1,623.4249334249998,None,f,0.6369268779999402,623.5250902469998,None,622.9248314020006,623.3416531540006,624.1889942790003,624.6761071300007,624.1889942790003,None,103,103,0,None,None,8,001,exponential,gyrb,0.75-0.35,2021_May_18_1715,color_judgement_and_subjective_perception,2020.2.10,59.99478393371033,
2,0.75,testing,1000,1,,,,,,,,,0,0,0,0,,,,,4,0,16,2,625.2760727660007,None,j,0.5218776279998565,625.3761316609998,None,624.7759339420008,625.1927783160008,625.926092574,626.426379048,625.926092574,None,77,26,0,None,None,8,001,exponential,gyrb,0.75-0.35,2021_May_18_1715,color_judgement_and_subjective_perception,2020.2.10,59.99478393371033,
3,0.75,testing,1000,1,,,,,,,,,0,0,0,0,,,,,4,1,17,3,627.0264848099996,None,k,0.46748511100122414,627.1265221270005,None,626.5261706330002,626.9432005400013,627.6264027390007,628.1265873610009,627.6264027390007,None,0,0,104,None,None,8,001,exponential,gyrb,0.75-0.35,2021_May_18_1715,color_judgement_and_subjective_perception,2020.2.10,59.99478393371033,
1,0.75,testing,1000,1,,,,,,,,,0,0,0,0,,,,,4,2,18,1,628.726690259,None,f,0.3993168249999144,628.826735173001,None,628.2265206310003,628.643240921001,629.244236292001,629.7443154760003,629.244236292001,None,101,101,0,None,None,8,001,exponential,gyrb,0.75-0.35,2021_May_18_1715,color_judgement_and_subjective_perception,2020.2.10,59.99478393371033,
3,0.75,testing,1000,1,,,,,,,,,0,0,0,0,,,,,4,3,19,3,630.3446202450014,None,None,-1,630.4443423400007,None,629.8441885550001,630.2611176050013,631.3451060010011,631.8448116020008,631.3451060010011,None,0,0,101,None,None,8,001,exponential,gyrb,0.75-0.35,2021_May_18_1715,color_judgement_and_subjective_perception,2020.2.10,59.99478393371033,
0,0.75,testing,1000,1,,,,,,,,,0,0,0,0,,,,,5,0,20,0,632.4448023519999,None,d,0.5292504469998676,632.5447720829998,None,631.9445469270013,632.361317293,633.0962120479999,633.5950700770009,633.0962120479999,None,0,93,0,None,None,8,001,exponential,gyrb,0.75-0.35,2021_May_18_1715,color_judgement_and_subjective_perception,2020.2.10,59.99478393371033,
1,0.75,testing,1000,1,,,,,,,,,0,0,0,0,,,,,5,1,21,1,634.186511543001,None,j,0.6827578100001119,634.2792075160014,None,633.6948232530012,634.1116507429997,634.9811960850002,635.4794071039996,634.9811960850002,None,99,99,0,None,None,8,001,exponential,gyrb,0.75-0.35,2021_May_18_1715,color_judgement_and_subjective_perception,2020.2.10,59.99478393371033,
3,0.75,testing,1000,1,,,,,,,,,0,0,0,0,,,,,5,2,22,3,636.0795608110002,None,k,0.5985972599992238,636.1794339400003,None,635.5791131309998,635.9961753110001,636.7979631119997,637.2963737890004,636.7979631119997,None,0,0,103,None,None,8,001,exponential,gyrb,0.75-0.35,2021_May_18_1715,color_judgement_and_subjective_perception,2020.2.10,59.99478393371033,
3,0.75,testing,1000,1,,,,,,,,,0,0,0,0,,,,,5,3,23,3,637.8964069570011,None,k,0.35756900900014443,637.9964245020001,None,637.3962453540007,637.8130015040006,638.379686313001,638.8798460580001,638.379686313001,None,0,0,103,None,None,8,001,exponential,gyrb,0.75-0.35,2021_May_18_1715,color_judgement_and_subjective_perception,2020.2.10,59.99478393371033,
0,0.75,testing,1000,1,,,,,,,,,0,0,0,0,,,,,6,0,24,0,639.464174019,None,None,-1,639.5642640060014,None,638.9797347060012,639.380837087001,640.464659909001,640.9643457889997,640.464659909001,None,0,92,0,None,None,8,001,exponential,gyrb,0.75-0.35,2021_May_18_1715,color_judgement_and_subjective_perception,2020.2.10,59.99478393371033,
0,0.75,testing,1000,1,,,,,,,,,0,0,0,0,,,,,6,1,25,0,641.5646824100004,None,d,0.6173096809998242,641.6646271490008,None,641.0642748740011,641.4811162019996,642.3159448530005,642.8146634470013,642.3159448530005,None,0,94,0,None,None,8,001,exponential,gyrb,0.75-0.35,2021_May_18_1715,color_judgement_and_subjective_perception,2020.2.10,59.99478393371033,
1,0.75,testing,1000,1,,,,,,,,,0,0,0,0,,,,,6,2,26,1,643.4146949490005,None,f,0.3352098909999768,643.5147899090007,None,642.9143780060003,643.3313538990005,643.8814120280003,644.3657317760008,643.8814120280003,None,103,103,0,None,None,8,001,exponential,gyrb,0.75-0.35,2021_May_18_1715,color_judgement_and_subjective_perception,2020.2.10,59.99478393371033,
1,0.75,testing,1000,1,,,,,,,,,0,0,0,0,,,,,6,3,27,1,644.9656979440006,None,f,0.6482430350006325,645.065738999001,None,644.4656604909997,644.8825867140004,645.7323927790003,646.2327232970001,645.7323927790003,None,103,103,0,None,None,8,001,exponential,gyrb,0.75-0.35,2021_May_18_1715,color_judgement_and_subjective_perception,2020.2.10,59.99478393371033,
0,0.75,testing,1000,1,,,,,,,,,0,0,0,0,,,,,7,0,28,0,646.832878782001,None,d,0.34899616399889055,646.9330089819996,None,646.3325391180006,646.749489627,647.2995932470003,647.7995570120002,647.2995932470003,None,0,92,0,None,None,8,001,exponential,gyrb,0.75-0.35,2021_May_18_1715,color_judgement_and_subjective_perception,2020.2.10,59.99478393371033,
3,0.75,testing,1000,1,,,,,,,,,0,0,0,0,,,,,7,1,29,3,648.3997601050014,None,j,0.6624409609994473,648.4995551240008,None,647.8993580660008,648.3162601660006,649.1833881130005,649.667308176,649.1833881130005,None,0,0,100,None,None,8,001,exponential,gyrb,0.75-0.35,2021_May_18_1715,color_judgement_and_subjective_perception,2020.2.10,59.99478393371033,
1,0.75,testing,1000,1,,,,,,,,,0,0,0,0,,,,,7,2,30,1,650.2673084960006,None,f,0.6986846180006978,650.3673457309997,None,649.7671538779996,650.1840406230003,651.0861637810012,651.584307561001,651.0861637810012,None,101,101,0,None,None,8,001,exponential,gyrb,0.75-0.35,2021_May_18_1715,color_judgement_and_subjective_perception,2020.2.10,59.99478393371033,
2,0.75,testing,1000,1,,,,,,,,,0,0,0,0,,,,,7,3,31,2,652.1843712040009,None,j,0.7496182699997007,652.2843483800007,None,651.6842329620013,652.1012260380012,653.05112319,653.5512236020004,653.05112319,None,75,25,0,None,None,8,001,exponential,gyrb,0.75-0.35,2021_May_18_1715,color_judgement_and_subjective_perception,2020.2.10,59.99478393371033,
3,0.75,testing,1000,1,,,,,,,,,0,0,0,0,,,,,8,0,32,3,654.1512883240011,None,k,0.5984574110007088,654.2355335310003,None,653.6511585330009,654.0681442130008,654.8520581619996,655.3522050760002,654.8520581619996,None,0,0,102,None,None,8,001,exponential,gyrb,0.75-0.35,2021_May_18_1715,color_judgement_and_subjective_perception,2020.2.10,59.99478393371033,
3,0.75,testing,1000,1,,,,,,,,,0,0,0,0,,,,,8,1,33,3,655.9522832040002,None,k,0.39758504800010996,656.0523229760001,None,655.451957229001,655.8692314510008,656.4690686230006,656.9691865069999,656.4690686230006,None,0,0,102,None,None,8,001,exponential,gyrb,0.75-0.35,2021_May_18_1715,color_judgement_and_subjective_perception,2020.2.10,59.99478393371033,
3,0.75,testing,1000,1,,,,,,,,,0,0,0,0,,,,,8,2,34,3,657.569161681,None,k,0.26059034100035205,657.6693453410007,None,657.0690685820009,657.4860163510002,657.9524985240005,658.4528512560009,657.9524985240005,None,0,0,100,None,None,8,001,exponential,gyrb,0.75-0.35,2021_May_18_1715,color_judgement_and_subjective_perception,2020.2.10,59.99478393371033,
0,0.75,testing,1000,1,,,,,,,,,0,0,0,0,,,,,8,3,35,0,659.0528615500007,None,d,0.7531060729997989,659.1528627300013,None,658.5526818470007,658.9694127660005,659.9371219000004,660.43739155,659.9371219000004,None,0,88,0,None,None,8,001,exponential,gyrb,0.75-0.35,2021_May_18_1715,color_judgement_and_subjective_perception,2020.2.10,59.99478393371033,
1,0.75,testing,1000,1,,,,,,,,,0,0,0,0,,,,,9,0,36,1,661.0374185480014,None,f,0.5847155609990295,661.1372955200004,None,660.537169231,660.9539984230014,661.7540064130008,662.2543171160014,661.7540064130008,None,96,96,0,None,None,8,001,exponential,gyrb,0.75-0.35,2021_May_18_1715,color_judgement_and_subjective_perception,2020.2.10,59.99478393371033,
0,0.75,testing,1000,1,,,,,,,,,0,0,0,0,,,,,9,1,37,0,662.8542576830005,None,d,0.43182908599919756,662.9541878319997,None,662.3540039279997,662.7709988690003,663.4042120310005,663.9046271750012,663.4042120310005,None,0,85,0,None,None,8,001,exponential,gyrb,0.75-0.35,2021_May_18_1715,color_judgement_and_subjective_perception,2020.2.10,59.99478393371033,
1,0.75,testing,1000,1,,,,,,,,,0,0,0,0,,,,,9,2,38,1,664.488794375,None,f,0.48522357199908583,664.5887783350008,None,664.004305931001,664.405380102,665.1053796190008,665.6054238690012,665.1053796190008,None,93,93,0,None,None,8,001,exponential,gyrb,0.75-0.35,2021_May_18_1715,color_judgement_and_subjective_perception,2020.2.10,59.99478393371033,
3,0.75,testing,1000,1,,,,,,,,,0,0,0,0,,,,,9,3,39,3,666.2056473880002,None,k,0.600366180000492,666.3055376650009,None,665.7051945430012,666.1223016470012,666.9390161610008,667.4391423890011,666.9390161610008,None,0,0,94,None,None,8,001,exponential,gyrb,0.75-0.35,2021_May_18_1715,color_judgement_and_subjective_perception,2020.2.10,59.99478393371033,
2,0.75,testing,1000,1,,,,,,,,,0,0,0,0,,,,,10,0,40,2,668.0391824830003,None,j,0.4868220199987263,668.1391924050004,None,667.538977061,667.955888253,668.6560947590006,669.1561392870008,668.6560947590006,None,65,22,0,None,None,8,001,exponential,gyrb,0.75-0.35,2021_May_18_1715,color_judgement_and_subjective_perception,2020.2.10,59.99478393371033,
2,0.75,testing,1000,1,,,,,,,,,0,0,0,0,,,,,10,1,41,2,669.7402994700005,None,j,0.5055759389997547,669.8404178729998,None,669.2402292290008,669.6570438310009,670.3736245210002,670.8737337940001,670.3736245210002,None,63,21,0,None,None,8,001,exponential,gyrb,0.75-0.35,2021_May_18_1715,color_judgement_and_subjective_perception,2020.2.10,59.99478393371033,
3,0.75,testing,1000,1,,,,,,,,,0,0,0,0,,,,,10,2,42,3,671.4740005370004,None,k,0.6038902930013137,671.5740908389998,None,670.9736847210006,671.390700332,672.2072440770007,672.7074063830005,672.2072440770007,None,0,0,90,None,None,8,001,exponential,gyrb,0.75-0.35,2021_May_18_1715,color_judgement_and_subjective_perception,2020.2.10,59.99478393371033,
1,0.75,testing,1000,1,,,,,,,,,0,0,0,0,,,,,10,3,43,1,673.307509454,None,f,0.6905161699996825,673.4075232699997,None,672.8072037490001,673.2242479100005,674.1242065030001,674.6084689529998,674.1242065030001,None,87,87,0,None,None,8,001,exponential,gyrb,0.75-0.35,2021_May_18_1715,color_judgement_and_subjective_perception,2020.2.10,59.99478393371033,
3,0.75,testing,1000,1,,,,,,,,,0,0,0,0,,,,,11,0,44,3,675.2085261040011,None,k,0.5094135610015655,675.3085722550004,None,674.7083648810003,675.125373584,675.8418690079998,676.3423005920013,675.8418690079998,None,0,0,87,None,None,8,001,exponential,gyrb,0.75-0.35,2021_May_18_1715,color_judgement_and_subjective_perception,2020.2.10,59.99478393371033,
0,0.75,testing,1000,1,,,,,,,,,0,0,0,0,,,,,11,1,45,0,676.9424209179997,None,None,-1,677.0424025060001,None,676.441979098001,676.8590097409997,677.9427094170005,678.4424553460012,677.9427094170005,None,0,76,0,None,None,8,001,exponential,gyrb,0.75-0.35,2021_May_18_1715,color_judgement_and_subjective_perception,2020.2.10,59.99478393371033,
3,0.75,testing,1000,1,,,,,,,,,0,0,0,0,,,,,11,2,46,3,679.0424639089997,None,k,0.7954149790002703,679.1425253779998,None,678.5423910460013,678.9591350980008,679.9615085540008,680.460138503,679.9615085540008,None,0,0,86,None,None,8,001,exponential,gyrb,0.75-0.35,2021_May_18_1715,color_judgement_and_subjective_perception,2020.2.10,59.99478393371033,
1,0.75,testing,1000,1,,,,,,,,,0,0,0,0,,,,,11,3,47,1,681.0603804270013,None,f,0.5536453290005738,681.1603647920001,None,680.5600179379999,680.9769653860003,681.743739607,682.2438833760007,681.743739607,None,84,84,0,None,None,8,001,exponential,gyrb,0.75-0.35,2021_May_18_1715,color_judgement_and_subjective_perception,2020.2.10,59.99478393371033,
3,0.75,testing,1000,1,,,,,,,,,0,0,0,0,,,,,12,0,48,3,682.843961939001,None,k,0.5061087820013199,682.9439025510001,None,682.3436658120008,682.7606102190002,683.4771204780009,683.9774523670003,683.4771204780009,None,0,0,83,None,None,8,001,exponential,gyrb,0.75-0.35,2021_May_18_1715,color_judgement_and_subjective_perception,2020.2.10,59.99478393371033,
3,0.75,testing,1000,1,,,,,,,,,0,0,0,0,,,,,12,1,49,3,684.5615555860004,None,k,0.44414168799994513,684.661776506,None,684.0772590619999,684.478391908,685.1281845810008,685.6284658670011,685.1281845810008,None,0,0,81,None,None,8,001,exponential,gyrb,0.75-0.35,2021_May_18_1715,color_judgement_and_subjective_perception,2020.2.10,59.99478393371033,
1,0.75,testing,1000,1,,,,,,,,,0,0,0,0,,,,,12,2,50,1,686.2287331980006,None,f,0.8493383670011099,686.3286696150008,None,685.7283134970003,686.1452239850005,687.1954727900011,687.6954326490013,687.1954727900011,None,80,80,0,None,None,8,001,exponential,gyrb,0.75-0.35,2021_May_18_1715,color_judgement_and_subjective_perception,2020.2.10,59.99478393371033,
3,0.75,testing,1000,1,,,,,,,,,0,0,0,0,,,,,12,3,51,3,688.2955893220005,None,k,0.5824770640010684,688.3955134360003,None,687.7951627580005,688.2122347620007,688.9955097109996,689.4801580950007,688.9955097109996,None,0,0,78,None,None,8,001,exponential,gyrb,0.75-0.35,2021_May_18_1715,color_judgement_and_subjective_perception,2020.2.10,59.99478393371033,
2,0.75,testing,1000,1,,,,,,,,,0,0,0,0,,,,,13,0,52,2,690.0799973740013,None,j,0.5579646220012364,690.1800483750012,None,689.5796574530013,689.9966201000007,690.7633036080006,691.2637293860007,690.7633036080006,None,53,18,0,None,None,8,001,exponential,gyrb,0.75-0.35,2021_May_18_1715,color_judgement_and_subjective_perception,2020.2.10,59.99478393371033,
1,0.75,testing,1000,1,,,,,,,,,0,0,0,0,,,,,13,1,53,1,691.8637499600009,None,f,0.6622937559986894,691.9637158540008,None,691.363450461,691.7804131350003,692.6468762200002,693.1472216640013,692.6468762200002,None,76,76,0,None,None,8,001,exponential,gyrb,0.75-0.35,2021_May_18_1715,color_judgement_and_subjective_perception,2020.2.10,59.99478393371033,
0,0.75,testing,1000,1,,,,,,,,,0,0,0,0,,,,,13,2,54,0,693.7472298850007,None,d,0.3307182179996744,693.8472903460006,None,693.2470511200008,693.6639320419999,694.1959427420006,694.6815078300006,694.1959427420006,None,0,70,0,None,None,8,001,exponential,gyrb,0.75-0.35,2021_May_18_1715,color_judgement_and_subjective_perception,2020.2.10,59.99478393371033,
0,0.75,testing,1000,1,,,,,,,,,0,0,0,0,,,,,13,3,55,0,695.2814914930004,None,d,0.668440716999612,695.3815686270009,None,694.7813916720006,695.1982919750008,696.0816828830011,696.5486533109997,696.0816828830011,None,0,68,0,None,None,8,001,exponential,gyrb,0.75-0.35,2021_May_18_1715,color_judgement_and_subjective_perception,2020.2.10,59.99478393371033,
1,0.75,testing,1000,1,,,,,,,,,0,0,0,0,,,,,14,0,56,1,697.132107632,None,None,-1,697.2153217760006,None,696.6482587700011,697.0487393310013,697.774291908001,698.2321249710003,697.774291908001,None,72,72,0,None,None,8,001,exponential,gyrb,0.75-0.35,2021_May_18_1715,color_judgement_and_subjective_perception,2020.2.10,59.99478393371033,
1,0.75,testing,1000,1,,,,,,,,,0,0,0,0,,,,,14,1,57,1,698.8322420650002,None,f,0.5658216589999938,698.9321873870012,None,698.3318677480001,698.7488350809999,699.5179700910012,700.0164376860012,699.5179700910012,None,74,74,0,None,None,8,001,exponential,gyrb,0.75-0.35,2021_May_18_1715,color_judgement_and_subjective_perception,2020.2.10,59.99478393371033,
1,0.75,testing,1000,1,,,,,,,,,0,0,0,0,,,,,14,2,58,1,700.6164883359997,None,f,0.3973881940000865,700.7166219890005,None,700.1161994619997,700.5332769020006,701.1331423419997,701.6336021730003,701.1331423419997,None,72,72,0,None,None,8,001,exponential,gyrb,0.75-0.35,2021_May_18_1715,color_judgement_and_subjective_perception,2020.2.10,59.99478393371033,
1,0.75,testing,1000,1,,,,,,,,,0,0,0,0,,,,,14,3,59,1,702.233603861001,None,f,0.42850054900009127,702.3335011689996,None,701.7334304699998,702.1501177440005,702.7834586300014,703.2836408620005,702.7834586300014,None,70,70,0,None,None,8,001,exponential,gyrb,0.75-0.35,2021_May_18_1715,color_judgement_and_subjective_perception,2020.2.10,59.99478393371033,
0,0.75,testing,1000,1,,,,,,,,,0,0,0,0,,,,,15,0,60,0,703.883734858,None,d,0.5942305689986824,703.983805291,None,703.3834676330007,703.8005798610011,704.6011099469997,705.1014302430012,704.6011099469997,None,0,64,0,None,None,8,001,exponential,gyrb,0.75-0.35,2021_May_18_1715,color_judgement_and_subjective_perception,2020.2.10,59.99478393371033,
2,0.75,testing,1000,1,,,,,,,,,0,0,0,0,,,,,15,1,61,2,705.7014715000005,None,j,0.7124044819993287,705.8014918940007,None,705.2012030730002,705.6180860840013,706.5348694860004,707.0351351540012,706.5348694860004,None,45,15,0,None,None,8,001,exponential,gyrb,0.75-0.35,2021_May_18_1715,color_judgement_and_subjective_perception,2020.2.10,59.99478393371033,
3,0.75,testing,1000,1,,,,,,,,,0,0,0,0,,,,,15,2,62,3,707.6350797499999,None,k,0.41888278599981277,707.7351048820001,None,707.1349226809998,707.5518928199999,708.1850690780011,708.6852375910003,708.1850690780011,None,0,0,68,None,None,8,001,exponential,gyrb,0.75-0.35,2021_May_18_1715,color_judgement_and_subjective_perception,2020.2.10,59.99478393371033,
1,0.75,testing,1000,1,,,,,,,,,0,0,0,0,,,,,15,3,63,1,709.2694881930001,None,None,-1,709.3696591080006,None,708.785111702,709.2007517969996,710.2700577060004,710.7696548990007,710.2700577060004,None,65,65,0,None,None,8,001,exponential,gyrb,0.75-0.35,2021_May_18_1715,color_judgement_and_subjective_perception,2020.2.10,59.99478393371033,
3,0.75,testing,1000,1,,,,,,,,,0,0,0,0,,,,,16,0,64,3,711.3698781700004,None,k,0.6121002820000285,711.4699289979999,None,710.8696170889998,711.2865063930003,712.1050211950005,712.6035123560014,712.1050211950005,None,0,0,67,None,None,8,001,exponential,gyrb,0.75-0.35,2021_May_18_1715,color_judgement_and_subjective_perception,2020.2.10,59.99478393371033,
