color_idx_ind,target_acc,mode,response_deadline,block_number,trials_training.thisRepN,trials_training.thisTrialN,trials_training.thisN,trials_training.thisIndex,trials_training_deadline.thisRepN,trials_training_deadline.thisTrialN,trials_training_deadline.thisN,trials_training_deadline.thisIndex,blocks.thisRepN,blocks.thisTrialN,blocks.thisN,blocks.thisIndex,trials_staircase.thisRepN,trials_staircase.thisTrialN,trials_staircase.thisN,trials_staircase.thisIndex,trials.thisRepN,trials.thisTrialN,trials.thisN,trials.thisIndex,stimulus_ind.started,stimulus_ind.stopped,key_resp_ind.keys,key_resp_ind.rt,key_resp_ind.started,key_resp_ind.stopped,fixation_cross_1_ind.started,fixation_cross_1_ind.stopped,text.started,text.stopped,dummy_text.started,dummy_text.stopped,stim_ind_color_rgb_r,stim_ind_color_rgb_g,stim_ind_color_rgb_b,text_break_block.started,text_break_block.stopped,participant,session,accuracy_weighting,color_mapping,block_difficulties,date,expName,psychopyVersion,frameRate,
1,0.9,training,1000000000000,,0,0,0,0,,,,,,,,,,,,,,,,,24.442203650996817,None,f,0.7310333189998346,24.542215139998007,None,23.94520141599787,24.35902909699871,25.294097854999563,25.79222601299989,25.294097854999563,None,,,,,,9,001,exponential,gyrb,0.35-0.75,2021_May_19_0941,color_judgement_and_subjective_perception,2020.2.10,60.016988048737744,
2,0.9,training,1000000000000,,0,1,1,1,,,,,,,,,,,,,,,,,26.392202879997058,None,j,0.756884006998007,26.492271131999587,None,25.892345012998703,26.309110042999237,27.276538330999756,27.776881082998443,27.276538330999756,None,,,,,,9,001,exponential,gyrb,0.35-0.75,2021_May_19_0941,color_judgement_and_subjective_perception,2020.2.10,60.016988048737744,
3,0.9,training,1000000000000,,0,2,2,2,,,,,,,,,,,,,,,,,28.376764951997757,None,k,0.6283837750015664,28.476771010999073,None,27.876790195998183,28.293376836998505,29.12676694399852,29.627137085997674,29.12676694399852,None,,,,,,9,001,exponential,gyrb,0.35-0.75,2021_May_19_0941,color_judgement_and_subjective_perception,2020.2.10,60.016988048737744,
1,0.9,training,1000000000000,,0,3,3,3,,,,,,,,,,,,,,,,,30.227145937999012,None,f,0.626042995001626,30.327100880997023,None,29.727059635999467,30.143786379998346,30.97699822699724,31.47727521900015,30.97699822699724,None,,,,,,9,001,exponential,gyrb,0.35-0.75,2021_May_19_0941,color_judgement_and_subjective_perception,2020.2.10,60.016988048737744,
2,0.9,training,1000000000000,,0,4,4,4,,,,,,,,,,,,,,,,,32.06150781899851,None,j,0.9116684830005397,32.16156342499744,None,31.577187806997244,31.978211549998377,33.09482174599907,33.59514931999729,33.09482174599907,None,,,,,,9,001,exponential,gyrb,0.35-0.75,2021_May_19_0941,color_judgement_and_subjective_perception,2020.2.10,60.016988048737744,
1,0.9,training,1000000000000,,0,5,5,5,,,,,,,,,,,,,,,,,34.14530687899969,None,f,0.7251871100015705,34.24398610999924,None,33.6951291569967,34.07850248499744,34.99507868699948,35.495478647997516,34.99507868699948,None,,,,,,9,001,exponential,gyrb,0.35-0.75,2021_May_19_0941,color_judgement_and_subjective_perception,2020.2.10,60.016988048737744,
3,0.9,training,1000000000000,,0,6,6,6,,,,,,,,,,,,,,,,,36.09537435499806,None,k,0.597699834001105,36.19545381599892,None,35.595420645997365,36.01198460500018,36.81312247099777,37.31334783899729,36.81312247099777,None,,,,,,9,001,exponential,gyrb,0.35-0.75,2021_May_19_0941,color_judgement_and_subjective_perception,2020.2.10,60.016988048737744,
2,0.9,training,1000000000000,,0,7,7,7,,,,,,,,,,,,,,,,,37.91336697599763,None,j,0.883919463998609,38.013257647999126,None,37.413224918000196,37.82991812199907,38.93000740400021,39.43002771999818,38.93000740400021,None,,,,,,9,001,exponential,gyrb,0.35-0.75,2021_May_19_0941,color_judgement_and_subjective_perception,2020.2.10,60.016988048737744,
0,0.9,training,1000000000000,,0,8,8,8,,,,,,,,,,,,,,,,,40.030254072997195,None,d,0.6468158929965284,40.13035938399844,None,39.530213420999644,39.94684429999688,40.796903938997275,41.29699048799739,40.796903938997275,None,,,,,,9,001,exponential,gyrb,0.35-0.75,2021_May_19_0941,color_judgement_and_subjective_perception,2020.2.10,60.016988048737744,
3,0.9,training,1000000000000,,0,9,9,9,,,,,,,,,,,,,,,,,41.88131508399965,None,k,0.5717701640023733,41.981374514998606,None,41.396864061996894,41.797986658999434,42.581337373998394,43.08154872799787,42.581337373998394,None,,,,,,9,001,exponential,gyrb,0.35-0.75,2021_May_19_0941,color_judgement_and_subjective_perception,2020.2.10,60.016988048737744,
0,0.9,training,1000000000000,,0,10,10,10,,,,,,,,,,,,,,,,,43.68147366899939,None,d,0.8195022399995651,43.781651659999625,None,43.18147340699943,43.59819523799888,44.631653081996774,45.131876800998725,44.631653081996774,None,,,,,,9,001,exponential,gyrb,0.35-0.75,2021_May_19_0941,color_judgement_and_subjective_perception,2020.2.10,60.016988048737744,
1,0.9,training,1000000000000,,0,11,11,11,,,,,,,,,,,,,,,,,45.73202165600014,None,f,0.5772126949996164,45.831960544997855,None,45.23177017699709,45.64851590399849,46.43189894799798,46.9162986659976,46.43189894799798,None,,,,,,9,001,exponential,gyrb,0.35-0.75,2021_May_19_0941,color_judgement_and_subjective_perception,2020.2.10,60.016988048737744,
3,0.9,training,1000000000000,,0,12,12,12,,,,,,,,,,,,,,,,,47.51645642099902,None,k,0.6007915920017695,47.61638876599682,None,47.01619603799918,47.433079563998035,48.249618021996866,48.74991625299663,48.249618021996866,None,,,,,,9,001,exponential,gyrb,0.35-0.75,2021_May_19_0941,color_judgement_and_subjective_perception,2020.2.10,60.016988048737744,
0,0.9,training,1000000000000,,0,13,13,13,,,,,,,,,,,,,,,,,49.349942032997205,None,d,0.7191608140019525,49.45001145799688,None,48.84977422799784,49.26656550400003,50.20006179799748,50.70013671199922,50.20006179799748,None,,,,,,9,001,exponential,gyrb,0.35-0.75,2021_May_19_0941,color_judgement_and_subjective_perception,2020.2.10,60.016988048737744,
1,0.9,training,1000000000000,,0,14,14,14,,,,,,,,,,,,,,,,,51.300204916999064,None,f,0.5930180830000609,51.400217652997526,None,50.800050265999744,51.216757368998515,52.017758591999154,52.51804320099836,52.017758591999154,None,,,,,,9,001,exponential,gyrb,0.35-0.75,2021_May_19_0941,color_judgement_and_subjective_perception,2020.2.10,60.016988048737744,
0,0.9,training,1000000000000,,0,15,15,15,,,,,,,,,,,,,,,,,53.11800616599794,None,d,0.823275738999655,53.21796190799796,None,52.61790209499668,53.0346146869997,54.06806977299857,54.5682937040001,54.06806977299857,None,,,,,,9,001,exponential,gyrb,0.35-0.75,2021_May_19_0941,color_judgement_and_subjective_perception,2020.2.10,60.016988048737744,
2,0.9,training,1000000000000,,0,16,16,16,,,,,,,,,,,,,,,,,55.16814370599968,None,j,0.6929147680020833,55.268324216998735,None,54.66825227199661,55.08492738899804,55.98506258699854,56.48515892899741,55.98506258699854,None,,,,,,9,001,exponential,gyrb,0.35-0.75,2021_May_19_0941,color_judgement_and_subjective_perception,2020.2.10,60.016988048737744,
0,0.9,training,1000000000000,,0,17,17,17,,,,,,,,,,,,,,,,,57.06956870799695,None,d,0.7676101199976983,57.16954657399765,None,56.585178697998344,56.9860582959991,57.969534455998655,58.46989996999764,57.969534455998655,None,,,,,,9,001,exponential,gyrb,0.35-0.75,2021_May_19_0941,color_judgement_and_subjective_perception,2020.2.10,60.016988048737744,
3,0.9,training,1000000000000,,0,18,18,18,,,,,,,,,,,,,,,,,59.070007027999964,None,k,0.6631459870004619,59.170083186996635,None,58.56977923199884,58.98661809299665,59.85328136799944,60.35333926599924,59.85328136799944,None,,,,,,9,001,exponential,gyrb,0.35-0.75,2021_May_19_0941,color_judgement_and_subjective_perception,2020.2.10,60.016988048737744,
0,0.9,training,1000000000000,,0,19,19,19,,,,,,,,,,,,,,,,,60.95331054499911,None,d,0.6279158990000724,61.05319979499836,None,60.45333569799914,60.86988388399914,61.70330012799968,62.18795159799993,61.70330012799968,None,,,,,,9,001,exponential,gyrb,0.35-0.75,2021_May_19_0941,color_judgement_and_subjective_perception,2020.2.10,60.016988048737744,
2,0.9,training,1000000000000,,0,20,20,20,,,,,,,,,,,,,,,,,62.78800559499723,None,j,0.7851010659978783,62.888098327999614,None,62.28801059699981,62.70468536799672,63.704434032999416,64.20477562299857,63.704434032999416,None,,,,,,9,001,exponential,gyrb,0.35-0.75,2021_May_19_0941,color_judgement_and_subjective_perception,2020.2.10,60.016988048737744,
3,0.9,training,1000000000000,,0,21,21,21,,,,,,,,,,,,,,,,,64.80479353099872,None,k,0.8724609450000571,64.9047767919983,None,64.30472735500007,64.72133998699792,65.80491547999918,66.30503870800021,65.80491547999918,None,,,,,,9,001,exponential,gyrb,0.35-0.75,2021_May_19_0941,color_judgement_and_subjective_perception,2020.2.10,60.016988048737744,
0,0.9,training,1000000000000,,0,22,22,22,,,,,,,,,,,,,,,,,66.88936404999913,None,d,0.7799090489970695,66.989323116999,None,66.40492212800018,66.80598287999965,67.78964330599774,68.28945760499846,67.78964330599774,None,,,,,,9,001,exponential,gyrb,0.35-0.75,2021_May_19_0941,color_judgement_and_subjective_perception,2020.2.10,60.016988048737744,
3,0.9,training,1000000000000,,0,23,23,23,,,,,,,,,,,,,,,,,68.88938292699822,None,k,0.8998082020007132,68.98940029999721,None,68.38940891199672,68.8062188119984,69.90639302099953,70.4065451949973,69.90639302099953,None,,,,,,9,001,exponential,gyrb,0.35-0.75,2021_May_19_0941,color_judgement_and_subjective_perception,2020.2.10,60.016988048737744,
0,0.9,training,1000000000000,,0,24,24,24,,,,,,,,,,,,,,,,,71.00640479699723,None,d,0.5666947200006689,71.10645494699929,None,70.5065108389972,70.92316189099802,71.6898013459977,72.17432600999746,71.6898013459977,None,,,,,,9,001,exponential,gyrb,0.35-0.75,2021_May_19_0941,color_judgement_and_subjective_perception,2020.2.10,60.016988048737744,
2,0.9,training,1000000000000,,0,25,25,25,,,,,,,,,,,,,,,,,72.7744010819988,None,j,0.6387398480001139,72.87450205999994,None,72.27443811199919,72.6909758169968,73.54102630299894,74.0413267039985,73.54102630299894,None,,,,,,9,001,exponential,gyrb,0.35-0.75,2021_May_19_0941,color_judgement_and_subjective_perception,2020.2.10,60.016988048737744,
1,0.9,training,1000000000000,,0,26,26,26,,,,,,,,,,,,,,,,,74.64115555299941,None,f,0.8118927679970511,74.74123956899712,None,74.1411077599987,74.55785306699909,75.57469918199786,76.07486683099705,75.57469918199786,None,,,,,,9,001,exponential,gyrb,0.35-0.75,2021_May_19_0941,color_judgement_and_subjective_perception,2020.2.10,60.016988048737744,
2,0.9,training,1000000000000,,0,27,27,27,,,,,,,,,,,,,,,,,76.67475429699698,None,j,0.6098255670003709,76.75931078599751,None,76.174743880998,76.59143485099776,77.39236622199678,77.89271680999809,77.39236622199678,None,,,,,,9,001,exponential,gyrb,0.35-0.75,2021_May_19_0941,color_judgement_and_subjective_perception,2020.2.10,60.016988048737744,
3,0.9,training,1000000000000,,0,28,28,28,,,,,,,,,,,,,,,,,78.49289131899786,None,k,0.51234408199889,78.59276579599828,None,77.9927639689995,78.4094701929971,79.12612199700015,79.6262982929984,79.12612199700015,None,,,,,,9,001,exponential,gyrb,0.35-0.75,2021_May_19_0941,color_judgement_and_subjective_perception,2020.2.10,60.016988048737744,
1,0.9,training,1000000000000,,0,29,29,29,,,,,,,,,,,,,,,,,80.22628729599819,None,f,0.6030912829992303,80.32606125099846,None,79.72633996500008,80.14286755699868,80.95951153699934,81.46006275799664,80.95951153699934,None,,,,,,9,001,exponential,gyrb,0.35-0.75,2021_May_19_0941,color_judgement_and_subjective_perception,2020.2.10,60.016988048737744,
2,0.9,training,1000000000000,,0,30,30,30,,,,,,,,,,,,,,,,,82.04421593499865,None,j,0.6967791839997517,82.14442980899912,None,81.55998914799784,81.96100710300016,82.86085169299986,83.36091864599803,82.86085169299986,None,,,,,,9,001,exponential,gyrb,0.35-0.75,2021_May_19_0941,color_judgement_and_subjective_perception,2020.2.10,60.016988048737744,
1,0.9,training,1000000000000,,0,31,31,31,,,,,,,,,,,,,,,,,83.96104990599997,None,f,0.660171118001017,84.06099142199673,None,83.46088363799936,83.87759285899665,84.7386008479989,85.16131565099931,84.7386008479989,None,,,,,,9,001,exponential,gyrb,0.35-0.75,2021_May_19_0941,color_judgement_and_subjective_perception,2020.2.10,60.016988048737744,
0,0.9,training,1000,,,,,,0,0,0,0,,,,,,,,,,,,,87.46239740999954,None,d,0.7506423439990613,87.56252440099706,None,86.96625014299934,87.37925097499829,88.3456207929994,88.84593060299812,88.3456207929994,None,,,,,,9,001,exponential,gyrb,0.35-0.75,2021_May_19_0941,color_judgement_and_subjective_perception,2020.2.10,60.016988048737744,
2,0.9,training,1000,,,,,,0,1,1,1,,,,,,,,,,,,,89.4462694099966,None,j,0.510871981998207,89.54623173899745,None,88.94602136999674,89.36299186199903,90.07943818199783,90.57960387299681,90.07943818199783,None,,,,,,9,001,exponential,gyrb,0.35-0.75,2021_May_19_0941,color_judgement_and_subjective_perception,2020.2.10,60.016988048737744,
3,0.9,training,1000,,,,,,0,2,2,2,,,,,,,,,,,,,91.17947361400002,None,k,0.28972762400007923,91.27944037999987,None,90.67942897699686,91.09623987699888,91.5960664209997,92.0807836219974,91.5960664209997,None,,,,,,9,001,exponential,gyrb,0.35-0.75,2021_May_19_0941,color_judgement_and_subjective_perception,2020.2.10,60.016988048737744,
2,0.9,training,1000,,,,,,0,3,3,3,,,,,,,,,,,,,92.6807505609977,None,j,0.5165104250008881,92.78071238499979,None,92.18057031899662,92.5975054829978,93.31394743999772,93.81430477499816,93.31394743999772,None,,,,,,9,001,exponential,gyrb,0.35-0.75,2021_May_19_0941,color_judgement_and_subjective_perception,2020.2.10,60.016988048737744,
0,0.9,training,1000,,,,,,0,4,4,4,,,,,,,,,,,,,94.4141527369975,None,d,0.46284599999853526,94.51431181299995,None,93.91423048499928,94.33091244999741,94.99746079499891,95.49785663099829,94.99746079499891,None,,,,,,9,001,exponential,gyrb,0.35-0.75,2021_May_19_0941,color_judgement_and_subjective_perception,2020.2.10,60.016988048737744,
1,0.9,training,1000,,,,,,0,5,5,5,,,,,,,,,,,,,96.09806008799933,None,f,0.38727411000218126,96.19796709000002,None,95.59783957599939,96.01473832299962,96.61445575999824,97.09896729899992,96.61445575999824,None,,,,,,9,001,exponential,gyrb,0.35-0.75,2021_May_19_0941,color_judgement_and_subjective_perception,2020.2.10,60.016988048737744,
2,0.9,training,1000,,,,,,0,6,6,6,,,,,,,,,,,,,97.6988771719989,None,j,0.6342384460003814,97.79891758799931,None,97.19887854399713,97.61553819699839,98.46550480399674,98.96597688999827,98.46550480399674,None,,,,,,9,001,exponential,gyrb,0.35-0.75,2021_May_19_0941,color_judgement_and_subjective_perception,2020.2.10,60.016988048737744,
1,0.9,training,1000,,,,,,0,7,7,7,,,,,,,,,,,,,99.5662403949973,None,f,0.5110430189997714,99.66610262099857,None,99.06592004399863,99.48282611799732,100.19925505299761,100.69951996399686,100.19925505299761,None,,,,,,9,001,exponential,gyrb,0.35-0.75,2021_May_19_0941,color_judgement_and_subjective_perception,2020.2.10,60.016988048737744,
3,0.9,training,1000,,,,,,0,8,8,8,,,,,,,,,,,,,101.29932353699769,None,k,0.6017888630012749,101.39936726099768,None,100.79945143099758,101.21602998399976,102.03360225699726,102.53394153099725,102.03360225699726,None,,,,,,9,001,exponential,gyrb,0.35-0.75,2021_May_19_0941,color_judgement_and_subjective_perception,2020.2.10,60.016988048737744,
0,0.9,training,1000,,,,,,0,9,9,9,,,,,,,,,,,,,103.13396851499783,None,d,0.43913605799752986,103.23410022399912,None,102.63392979599666,103.05078457799755,103.70046500199896,104.20082900399939,103.70046500199896,None,,,,,,9,001,exponential,gyrb,0.35-0.75,2021_May_19_0941,color_judgement_and_subjective_perception,2020.2.10,60.016988048737744,
2,0.9,training,1000,,,,,,0,10,10,10,,,,,,,,,,,,,104.80075588499676,None,f,0.45240993500192417,104.90076351699827,None,104.30077508499744,104.71750055599841,105.38437788599913,105.8844294699993,105.38437788599913,None,,,,,,9,001,exponential,gyrb,0.35-0.75,2021_May_19_0941,color_judgement_and_subjective_perception,2020.2.10,60.016988048737744,
1,0.9,training,1000,,,,,,0,11,11,11,,,,,,,,,,,,,106.48464378599965,None,f,0.3687052899986156,106.58451564799907,None,105.98451037099949,106.40126673899795,106.98529228599728,107.4854826439987,106.98529228599728,None,,,,,,9,001,exponential,gyrb,0.35-0.75,2021_May_19_0941,color_judgement_and_subjective_perception,2020.2.10,60.016988048737744,
0,0.9,training,1000,,,,,,0,12,12,12,,,,,,,,,,,,,108.08537403199807,None,d,0.7118160850004642,108.18537018799907,None,107.58549046799817,108.00218885899812,108.91867985799763,109.41925931199876,108.91867985799763,None,,,,,,9,001,exponential,gyrb,0.35-0.75,2021_May_19_0941,color_judgement_and_subjective_perception,2020.2.10,60.016988048737744,
1,0.9,training,1000,,,,,,0,13,13,13,,,,,,,,,,,,,110.01924564499859,None,f,0.5139267119993747,110.1192870369996,None,109.51929878699957,109.93599373699908,110.65253242999825,111.15252638499805,110.65253242999825,None,,,,,,9,001,exponential,gyrb,0.35-0.75,2021_May_19_0941,color_judgement_and_subjective_perception,2020.2.10,60.016988048737744,
2,0.9,training,1000,,,,,,0,14,14,14,,,,,,,,,,,,,111.75141661899761,None,j,0.4042523319985776,111.83690689099967,None,111.25261381299788,111.66921550299958,112.27028583199717,112.77048642999944,112.27028583199717,None,,,,,,9,001,exponential,gyrb,0.35-0.75,2021_May_19_0941,color_judgement_and_subjective_perception,2020.2.10,60.016988048737744,
0,0.9,training,1000,,,,,,0,15,15,15,,,,,,,,,,,,,113.37065419399732,None,d,0.6266020140028559,113.47063647199684,None,112.87055527699704,113.28734220899787,114.12056316999951,114.62065104999783,114.12056316999951,None,,,,,,9,001,exponential,gyrb,0.35-0.75,2021_May_19_0941,color_judgement_and_subjective_perception,2020.2.10,60.016988048737744,
2,0.9,training,1000,,,,,,0,16,16,16,,,,,,,,,,,,,115.22061823299737,None,j,0.6485489959995903,115.32060681999792,None,114.72074342399719,115.13730563499848,115.9872582909993,116.48770405199684,115.9872582909993,None,,,,,,9,001,exponential,gyrb,0.35-0.75,2021_May_19_0941,color_judgement_and_subjective_perception,2020.2.10,60.016988048737744,
0,0.9,training,1000,,,,,,0,17,17,17,,,,,,,,,,,,,117.07204515099875,None,d,0.6450773939977807,117.17212800999914,None,116.58769197599759,116.98878012299974,117.83856651399765,118.33883066999988,117.83856651399765,None,,,,,,9,001,exponential,gyrb,0.35-0.75,2021_May_19_0941,color_judgement_and_subjective_perception,2020.2.10,60.016988048737744,
3,0.9,training,1000,,,,,,0,18,18,18,,,,,,,,,,,,,118.93873644799896,None,k,0.45843404900006135,119.03871416399852,None,118.43866028299817,118.85535601699667,119.52207565999925,120.02243597999768,119.52207565999925,None,,,,,,9,001,exponential,gyrb,0.35-0.75,2021_May_19_0941,color_judgement_and_subjective_perception,2020.2.10,60.016988048737744,
2,0.9,training,1000,,,,,,0,19,19,19,,,,,,,,,,,,,120.62248232399725,None,j,0.6065382279994083,120.72267924699918,None,120.1224825729987,120.53914188099952,121.35575994099781,121.84009666299971,121.35575994099781,None,,,,,,9,001,exponential,gyrb,0.35-0.75,2021_May_19_0941,color_judgement_and_subjective_perception,2020.2.10,60.016988048737744,
0,0.9,training,1000,,,,,,0,20,20,20,,,,,,,,,,,,,122.44017309399715,None,d,0.4209833120003168,122.54015488299774,None,121.94012462399769,122.35683657799746,122.99003806600012,123.49048065899842,122.99003806600012,None,,,,,,9,001,exponential,gyrb,0.35-0.75,2021_May_19_0941,color_judgement_and_subjective_perception,2020.2.10,60.016988048737744,
1,0.9,training,1000,,,,,,0,21,21,21,,,,,,,,,,,,,124.0906254329966,None,f,0.3865130960002716,124.19069426499846,None,123.59048224700018,124.00732537499789,124.60719437999796,125.10744290799994,124.60719437999796,None,,,,,,9,001,exponential,gyrb,0.35-0.75,2021_May_19_0941,color_judgement_and_subjective_perception,2020.2.10,60.016988048737744,
2,0.9,training,1000,,,,,,0,22,22,22,,,,,,,,,,,,,125.70734381599686,None,j,0.5219484529989131,125.80720674199983,None,125.20719507099784,125.62387224899794,126.35716800699811,126.84189985199919,126.35716800699811,None,,,,,,9,001,exponential,gyrb,0.35-0.75,2021_May_19_0941,color_judgement_and_subjective_perception,2020.2.10,60.016988048737744,
0,0.9,training,1000,,,,,,0,23,23,23,,,,,,,,,,,,,127.44208769099714,None,d,0.43523857000036514,127.54194689999713,None,126.94192851799744,127.35863714599691,128.00847587799944,128.50871714899768,128.00847587799944,None,,,,,,9,001,exponential,gyrb,0.35-0.75,2021_May_19_0941,color_judgement_and_subjective_perception,2020.2.10,60.016988048737744,
3,0.9,training,1000,,,,,,0,24,24,24,,,,,,,,,,,,,129.10864870399746,None,k,0.4965971419987909,129.20854378199874,None,128.6086780709993,129.02525017899825,129.725356955998,130.22569524599749,129.725356955998,None,,,,,,9,001,exponential,gyrb,0.35-0.75,2021_May_19_0941,color_judgement_and_subjective_perception,2020.2.10,60.016988048737744,
1,0.9,training,1000,,,,,,0,25,25,25,,,,,,,,,,,,,130.82583047699882,None,f,0.6673730059992522,130.92579092399683,None,130.32564719499715,130.74249110299934,131.6258050059987,132.1101664789967,131.6258050059987,None,,,,,,9,001,exponential,gyrb,0.35-0.75,2021_May_19_0941,color_judgement_and_subjective_perception,2020.2.10,60.016988048737744,
3,0.9,training,1000,,,,,,0,26,26,26,,,,,,,,,,,,,132.71015493699815,None,k,0.5111861959994712,132.81003447199691,None,132.2100707469981,132.62667354499717,133.34324617099992,133.8436819819981,133.34324617099992,None,,,,,,9,001,exponential,gyrb,0.35-0.75,2021_May_19_0941,color_judgement_and_subjective_perception,2020.2.10,60.016988048737744,
1,0.9,training,1000,,,,,,0,27,27,27,,,,,,,,,,,,,134.44392261399844,None,f,0.3856657619980979,134.5435770189979,None,133.94343979999758,134.36066498699802,134.9604340529986,135.4605570269996,134.9604340529986,None,,,,,,9,001,exponential,gyrb,0.35-0.75,2021_May_19_0941,color_judgement_and_subjective_perception,2020.2.10,60.016988048737744,
2,0.9,training,1000,,,,,,0,28,28,28,,,,,,,,,,,,,136.060480164997,None,j,0.4807131080015097,136.16045340199707,None,135.56046622299982,135.97712043199863,136.66042421399834,137.1452392430001,136.66042421399834,None,,,,,,9,001,exponential,gyrb,0.35-0.75,2021_May_19_0941,color_judgement_and_subjective_perception,2020.2.10,60.016988048737744,
0,0.9,training,1000,,,,,,0,29,29,29,,,,,,,,,,,,,137.74510800200005,None,d,0.2840499080011796,137.84510382499866,None,137.2449518609974,137.6618559439994,138.16170377899834,138.66179838300013,138.16170377899834,None,,,,,,9,001,exponential,gyrb,0.35-0.75,2021_May_19_0941,color_judgement_and_subjective_perception,2020.2.10,60.016988048737744,
2,0.9,training,1000,,,,,,0,30,30,30,,,,,,,,,,,,,139.26183952799693,None,j,0.6953332299999602,139.36182547499993,None,138.76167254299799,139.17852871299692,140.0785967799966,140.5787645049968,140.0785967799966,None,,,,,,9,001,exponential,gyrb,0.35-0.75,2021_May_19_0941,color_judgement_and_subjective_perception,2020.2.10,60.016988048737744,
3,0.9,training,1000,,,,,,0,31,31,31,,,,,,,,,,,,,141.17903850199946,None,k,0.28214302999913343,141.27907017799953,None,140.67888324599699,141.09573374299725,141.57866711799943,142.0632318789976,141.57866711799943,None,,,,,,9,001,exponential,gyrb,0.35-0.75,2021_May_19_0941,color_judgement_and_subjective_perception,2020.2.10,60.016988048737744,
1,0.9,training,1000,,,,,,0,32,32,32,,,,,,,,,,,,,142.6631729949986,None,f,0.30989171200053534,142.76323928899728,None,142.1632164829971,142.57990816599704,143.0963861379969,143.59692802599966,143.0963861379969,None,,,,,,9,001,exponential,gyrb,0.35-0.75,2021_May_19_0941,color_judgement_and_subjective_perception,2020.2.10,60.016988048737744,
3,0.9,training,1000,,,,,,0,33,33,33,,,,,,,,,,,,,144.19704734799961,None,k,0.5840553939997335,144.29717893899942,None,143.69666310299726,144.11369339999874,144.91351423599917,145.41362777799804,144.91351423599917,None,,,,,,9,001,exponential,gyrb,0.35-0.75,2021_May_19_0941,color_judgement_and_subjective_perception,2020.2.10,60.016988048737744,
1,0.9,training,1000,,,,,,0,34,34,34,,,,,,,,,,,,,146.0136278539976,None,f,0.4235961509984918,146.11357773099735,None,145.51349998799924,145.9302537299991,146.56358238899702,147.04823574999682,146.56358238899702,None,,,,,,9,001,exponential,gyrb,0.35-0.75,2021_May_19_0941,color_judgement_and_subjective_perception,2020.2.10,60.016988048737744,
2,0.9,training,1000,,,,,,0,35,35,35,,,,,,,,,,,,,147.64820354399853,None,j,0.4768823300000804,147.7483563679998,None,147.14822200799972,147.56476794399714,148.2481851929988,148.74839184299708,148.2481851929988,None,,,,,,9,001,exponential,gyrb,0.35-0.75,2021_May_19_0941,color_judgement_and_subjective_perception,2020.2.10,60.016988048737744,
3,0.9,training,1000,,,,,,0,36,36,36,,,,,,,,,,,,,149.3483187439997,None,k,0.3446971810008108,149.44843534999745,None,148.84819499799778,149.26513164199787,149.81518419299755,150.3153561479994,149.81518419299755,None,,,,,,9,001,exponential,gyrb,0.35-0.75,2021_May_19_0941,color_judgement_and_subjective_perception,2020.2.10,60.016988048737744,
0,0.9,training,1000,,,,,,0,37,37,37,,,,,,,,,,,,,150.91547392099892,None,d,0.38561650200063013,151.0155833989993,None,150.41538811299688,150.83216380299928,151.43194574299923,151.91641794199677,151.43194574299923,None,,,,,,9,001,exponential,gyrb,0.35-0.75,2021_May_19_0941,color_judgement_and_subjective_perception,2020.2.10,60.016988048737744,
3,0.9,training,1000,,,,,,0,38,38,38,,,,,,,,,,,,,152.5163895939986,None,k,0.7127969639986986,152.6163638580001,None,152.0163939879967,152.4330344459995,153.34964921699793,153.8501597909999,153.34964921699793,None,,,,,,9,001,exponential,gyrb,0.35-0.75,2021_May_19_0941,color_judgement_and_subjective_perception,2020.2.10,60.016988048737744,
1,0.9,training,1000,,,,,,0,39,39,39,,,,,,,,,,,,,154.45034649399895,None,f,0.37100215099781053,154.55024911299915,None,153.95018024099772,154.36693350399946,154.95004983699982,155.45040191599765,154.95004983699982,None,,,,,,9,001,exponential,gyrb,0.35-0.75,2021_May_19_0941,color_judgement_and_subjective_perception,2020.2.10,60.016988048737744,
2,0.9,training,1000,,,,,,0,40,40,40,,,,,,,,,,,,,156.05011656299757,None,j,0.347054511999886,156.150122584997,None,155.55011305399967,155.96673137299877,156.51671819199692,157.00130871299916,156.51671819199692,None,,,,,,9,001,exponential,gyrb,0.35-0.75,2021_May_19_0941,color_judgement_and_subjective_perception,2020.2.10,60.016988048737744,
0,0.9,training,1000,,,,,,0,41,41,41,,,,,,,,,,,,,157.60136080299708,None,d,0.32364715400035493,157.7015577079983,None,157.10140735599998,157.51798899299683,158.05127277799693,158.55153169199912,158.05127277799693,None,,,,,,9,001,exponential,gyrb,0.35-0.75,2021_May_19_0941,color_judgement_and_subjective_perception,2020.2.10,60.016988048737744,
3,0.9,training,1000,,,,,,0,42,42,42,,,,,,,,,,,,,159.15146037999875,None,k,0.5496427500002028,159.2515188119978,None,158.6514956289975,159.06807505599863,159.8181774739969,160.31849662999957,159.8181774739969,None,,,,,,9,001,exponential,gyrb,0.35-0.75,2021_May_19_0941,color_judgement_and_subjective_perception,2020.2.10,60.016988048737744,
1,0.9,training,1000,,,,,,0,43,43,43,,,,,,,,,,,,,160.91869735,None,f,0.3825600950003718,161.01864970599854,None,160.4184987970002,160.83538344599947,161.41830074599784,161.90291823499865,161.41830074599784,None,,,,,,9,001,exponential,gyrb,0.35-0.75,2021_May_19_0941,color_judgement_and_subjective_perception,2020.2.10,60.016988048737744,
3,0.9,training,1000,,,,,,0,44,44,44,,,,,,,,,,,,,162.5029216619987,None,k,0.4623077119977097,162.60288701399986,None,162.00287211199975,162.41977254299854,163.08614175399998,163.5864855889995,163.08614175399998,None,,,,,,9,001,exponential,gyrb,0.35-0.75,2021_May_19_0941,color_judgement_and_subjective_perception,2020.2.10,60.016988048737744,
1,0.9,training,1000,,,,,,0,45,45,45,,,,,,,,,,,,,164.1866925689974,None,f,0.46665239600042696,164.28661382599967,None,163.6865031950001,164.10330243099816,164.7696894829969,165.26999281999815,164.7696894829969,None,,,,,,9,001,exponential,gyrb,0.35-0.75,2021_May_19_0941,color_judgement_and_subjective_perception,2020.2.10,60.016988048737744,
0,0.9,training,1000,,,,,,0,46,46,46,,,,,,,,,,,,,165.8698895769994,None,d,0.4631952800009458,165.96998526399693,None,165.3699411589987,165.78678687299907,166.45325687799777,166.93797350299792,166.45325687799777,None,,,,,,9,001,exponential,gyrb,0.35-0.75,2021_May_19_0941,color_judgement_and_subjective_perception,2020.2.10,60.016988048737744,
3,0.9,training,1000,,,,,,0,47,47,47,,,,,,,,,,,,,167.53802810699926,None,k,0.30690479099939694,167.63830048899763,None,167.03791224199813,167.45472441299717,167.97112153299895,168.4714497169989,167.97112153299895,None,,,,,,9,001,exponential,gyrb,0.35-0.75,2021_May_19_0941,color_judgement_and_subjective_perception,2020.2.10,60.016988048737744,
1,0.9,training,1000,,,,,,0,48,48,48,,,,,,,,,,,,,169.07133476699892,None,f,0.38985339300052146,169.1713223739971,None,168.57141841799967,168.987933952998,169.58795926999665,170.08836992299985,169.58795926999665,None,,,,,,9,001,exponential,gyrb,0.35-0.75,2021_May_19_0941,color_judgement_and_subjective_perception,2020.2.10,60.016988048737744,
2,0.9,training,1000,,,,,,0,49,49,49,,,,,,,,,,,,,170.68844238499878,None,j,0.30054985899914755,170.7885996849982,None,170.18832908499826,170.60506687299858,171.121578217997,171.62173770799927,171.121578217997,None,,,,,,9,001,exponential,gyrb,0.35-0.75,2021_May_19_0941,color_judgement_and_subjective_perception,2020.2.10,60.016988048737744,
0,0.9,training,1000,,,,,,0,50,50,50,,,,,,,,,,,,,172.20605518999946,None,d,0.438964267999836,172.30618668499665,None,171.72171125299792,172.12261507999938,172.7725768700002,173.27287448899733,172.7725768700002,None,,,,,,9,001,exponential,gyrb,0.35-0.75,2021_May_19_0941,color_judgement_and_subjective_perception,2020.2.10,60.016988048737744,
0,0.9,training,1000,,,,,,0,51,51,51,,,,,,,,,,,,,173.87302049999926,None,d,0.39607470000191825,173.97317506999752,None,173.37292667299698,173.78981518799992,174.38960209499783,174.8898792229993,174.38960209499783,None,,,,,,9,001,exponential,gyrb,0.35-0.75,2021_May_19_0941,color_judgement_and_subjective_perception,2020.2.10,60.016988048737744,
0,0.9,training,1000,,,,,,0,52,52,52,,,,,,,,,,,,,175.48980681899775,None,d,0.3874647640004696,175.58970358699662,None,174.98982238199824,175.40640509399964,176.00636993999797,176.50685785799942,176.00636993999797,None,,,,,,9,001,exponential,gyrb,0.35-0.75,2021_May_19_0941,color_judgement_and_subjective_perception,2020.2.10,60.016988048737744,
3,0.9,training,1000,,,,,,0,53,53,53,,,,,,,,,,,,,177.09097411299808,None,k,0.41011850900031277,177.1911452889981,None,176.60677227499764,177.0078662499982,177.62430076599776,178.1245048919991,177.62430076599776,None,,,,,,9,001,exponential,gyrb,0.35-0.75,2021_May_19_0941,color_judgement_and_subjective_perception,2020.2.10,60.016988048737744,
3,0.9,training,1000,,,,,,0,54,54,54,,,,,,,,,,,,,178.72436471999754,None,k,0.3447289899995667,178.82440763900013,None,178.22447153399844,178.64107216399861,179.19115718299872,179.69156557199676,179.19115718299872,None,,,,,,9,001,exponential,gyrb,0.35-0.75,2021_May_19_0941,color_judgement_and_subjective_perception,2020.2.10,60.016988048737744,
1,0.9,training,1000,,,,,,0,55,55,55,,,,,,,,,,,,,180.29155846999856,None,f,0.6096276070020394,180.39159532999838,None,179.79147092199855,180.20807918799983,181.02485731299748,181.52489474100003,181.02485731299748,None,,,,,,9,001,exponential,gyrb,0.35-0.75,2021_May_19_0941,color_judgement_and_subjective_perception,2020.2.10,60.016988048737744,
0,0.9,training,1000,,,,,,0,56,56,56,,,,,,,,,,,,,182.10913106999942,None,d,0.5199648359994171,182.20917535199987,None,181.62483131099725,182.02591042399945,182.75911080099831,183.25941118699848,182.75911080099831,None,,,,,,9,001,exponential,gyrb,0.35-0.75,2021_May_19_0941,color_judgement_and_subjective_perception,2020.2.10,60.016988048737744,
2,0.9,training,1000,,,,,,0,57,57,57,,,,,,,,,,,,,183.85959551799897,None,j,0.3295062049983244,183.95972211799744,None,183.35944789299901,183.7762493409973,184.30960826999944,184.80964184799814,184.30960826999944,None,,,,,,9,001,exponential,gyrb,0.35-0.75,2021_May_19_0941,color_judgement_and_subjective_perception,2020.2.10,60.016988048737744,
0,0.9,training,1000,,,,,,0,58,58,58,,,,,,,,,,,,,185.40947378799683,None,d,0.4434483250006451,185.5096866399981,None,184.90954540899838,185.32622992599863,185.97624955099673,186.47685132399783,185.97624955099673,None,,,,,,9,001,exponential,gyrb,0.35-0.75,2021_May_19_0941,color_judgement_and_subjective_perception,2020.2.10,60.016988048737744,
0,0.9,training,1000,,,,,,0,59,59,59,,,,,,,,,,,,,187.06097605299874,None,d,0.6000357709999662,187.16108724699734,None,186.5765427569968,186.97741251799744,187.79422277299818,188.29437970999788,187.79422277299818,None,,,,,,9,001,exponential,gyrb,0.35-0.75,2021_May_19_0941,color_judgement_and_subjective_perception,2020.2.10,60.016988048737744,
2,0.9,training,1000,,,,,,0,60,60,60,,,,,,,,,,,,,188.89433720399757,None,j,0.3508210969994252,188.99434433199713,None,188.3942083869988,188.81102677599847,189.37770790299692,189.8780483069968,189.37770790299692,None,,,,,,9,001,exponential,gyrb,0.35-0.75,2021_May_19_0941,color_judgement_and_subjective_perception,2020.2.10,60.016988048737744,
2,0.9,training,1000,,,,,,0,61,61,61,,,,,,,,,,,,,190.47818451499916,None,j,0.36698994700054755,190.5781749839989,None,189.97778698599723,190.3946946799988,190.97798742399755,191.4781935109968,190.97798742399755,None,,,,,,9,001,exponential,gyrb,0.35-0.75,2021_May_19_0941,color_judgement_and_subjective_perception,2020.2.10,60.016988048737744,
1,0.9,training,1000,,,,,,0,62,62,62,,,,,,,,,,,,,192.06237118599893,None,f,0.5667489530023886,192.16248047699992,None,191.5780946499981,191.97904325099807,192.76237865099756,193.2626967719989,192.76237865099756,None,,,,,,9,001,exponential,gyrb,0.35-0.75,2021_May_19_0941,color_judgement_and_subjective_perception,2020.2.10,60.016988048737744,
1,0.9,training,1000,,,,,,0,63,63,63,,,,,,,,,,,,,193.8628552379996,None,f,0.45447153200075263,193.9627434260001,None,193.36256279199733,193.77950484599933,194.44603196599928,194.94624754699907,194.44603196599928,None,,,,,,9,001,exponential,gyrb,0.35-0.75,2021_May_19_0941,color_judgement_and_subjective_perception,2020.2.10,60.016988048737744,
3,0.9,training,1000,,,,,,0,64,64,64,,,,,,,,,,,,,195.54621094299728,None,k,0.4910078169996268,195.64614506299768,None,195.0463109639968,195.46286161199896,196.16272420699897,196.66332795999915,196.16272420699897,None,,,,,,9,001,exponential,gyrb,0.35-0.75,2021_May_19_0941,color_judgement_and_subjective_perception,2020.2.10,60.016988048737744,
2,0.9,training,1000,,,,,,0,65,65,65,,,,,,,,,,,,,197.24756680299834,None,j,0.7097601770001347,197.34747123499983,None,196.7633485439983,197.16399601999728,198.0807499679977,198.58088064999902,198.0807499679977,None,,,,,,9,001,exponential,gyrb,0.35-0.75,2021_May_19_0941,color_judgement_and_subjective_perception,2020.2.10,60.016988048737744,
1,0.9,training,1000,,,,,,0,66,66,66,,,,,,,,,,,,,199.1808603779973,None,f,0.5122532710011001,199.28091115200004,None,198.68092328799685,199.09758970999974,199.81431048599916,200.31450786099958,199.81431048599916,None,,,,,,9,001,exponential,gyrb,0.35-0.75,2021_May_19_0941,color_judgement_and_subjective_perception,2020.2.10,60.016988048737744,
1,0.9,training,1000,,,,,,0,67,67,67,,,,,,,,,,,,,200.914695296,None,f,0.3784021230021608,201.01483038699735,None,200.41456929099877,200.83134579799662,201.4144898049999,201.8989400199971,201.4144898049999,None,,,,,,9,001,exponential,gyrb,0.35-0.75,2021_May_19_0941,color_judgement_and_subjective_perception,2020.2.10,60.016988048737744,
2,0.9,training,1000,,,,,,0,68,68,68,,,,,,,,,,,,,202.4990340819968,None,j,0.3861332099986612,202.59900775299684,None,201.99892339799771,202.41553099599696,203.015447466998,203.51613160899797,203.015447466998,None,,,,,,9,001,exponential,gyrb,0.35-0.75,2021_May_19_0941,color_judgement_and_subjective_perception,2020.2.10,60.016988048737744,
0,0.9,training,1000,,,,,,0,69,69,69,,,,,,,,,,,,,204.11611043599987,None,d,0.4651003770013631,204.2161532559985,None,203.6160920589973,204.03261188399847,204.69924686000013,205.19930417499927,204.69924686000013,None,,,,,,9,001,exponential,gyrb,0.35-0.75,2021_May_19_0941,color_judgement_and_subjective_perception,2020.2.10,60.016988048737744,
0,0.9,training,1000,,,,,,0,70,70,70,,,,,,,,,,,,,205.79927133599995,None,d,0.5497611219980172,205.89938964199973,None,205.29941800499728,205.71598940999684,206.46588869499828,206.9505576699994,206.46588869499828,None,,,,,,9,001,exponential,gyrb,0.35-0.75,2021_May_19_0941,color_judgement_and_subjective_perception,2020.2.10,60.016988048737744,
1,0.9,training,1000,,,,,,0,71,71,71,,,,,,,,,,,,,207.55060036499708,None,f,0.4625506079974002,207.65066617199773,None,207.0505054839996,207.46718546499687,208.1338478339967,208.63412295099988,208.1338478339967,None,,,,,,9,001,exponential,gyrb,0.35-0.75,2021_May_19_0941,color_judgement_and_subjective_perception,2020.2.10,60.016988048737744,
0,0.9,training,1000,,,,,,0,72,72,72,,,,,,,,,,,,,209.2339771049992,None,d,0.4671873789993697,209.33401638099895,None,208.733934484997,209.1508507059989,209.8340588189967,210.3342684729978,209.8340588189967,None,,,,,,9,001,exponential,gyrb,0.35-0.75,2021_May_19_0941,color_judgement_and_subjective_perception,2020.2.10,60.016988048737744,
2,0.9,training,1000,,,,,,0,73,73,73,,,,,,,,,,,,,210.9345297969994,None,j,0.526696234002884,211.03452476799794,None,210.43440153699703,210.85118051899917,211.58447571599754,212.06871900699844,211.58447571599754,None,,,,,,9,001,exponential,gyrb,0.35-0.75,2021_May_19_0941,color_judgement_and_subjective_perception,2020.2.10,60.016988048737744,
1,0.9,training,1000,,,,,,0,74,74,74,,,,,,,,,,,,,212.66876181899715,None,f,0.6884607909996703,212.76872189599817,None,212.16883215099733,212.58542364999812,213.48539007399813,213.9858538649969,213.48539007399813,None,,,,,,9,001,exponential,gyrb,0.35-0.75,2021_May_19_0941,color_judgement_and_subjective_perception,2020.2.10,60.016988048737744,
3,0.9,training,1000,,,,,,0,75,75,75,,,,,,,,,,,,,214.5860706559979,None,k,0.5072442320015398,214.68599080399872,None,214.08585066699743,214.50274475999686,215.2190442889987,215.71931604699785,215.2190442889987,None,,,,,,9,001,exponential,gyrb,0.35-0.75,2021_May_19_0941,color_judgement_and_subjective_perception,2020.2.10,60.016988048737744,
3,0.9,training,1000,,,,,,0,76,76,76,,,,,,,,,,,,,216.3192026129982,None,k,0.317986870999448,216.41918112699932,None,215.81917684299697,216.2358421359968,216.76914725499955,217.25362093500007,216.76914725499955,None,,,,,,9,001,exponential,gyrb,0.35-0.75,2021_May_19_0941,color_judgement_and_subjective_perception,2020.2.10,60.016988048737744,
3,0.9,training,1000,,,,,,0,77,77,77,,,,,,,,,,,,,217.85385271399718,None,k,0.31934871499834117,217.95387907799886,None,217.35387782799808,217.7704830429975,218.30379140500008,218.80400579399793,218.30379140500008,None,,,,,,9,001,exponential,gyrb,0.35-0.75,2021_May_19_0941,color_judgement_and_subjective_perception,2020.2.10,60.016988048737744,
0,0.9,training,1000,,,,,,0,78,78,78,,,,,,,,,,,,,219.40392342299674,None,d,0.46522856400042656,219.50392375699812,None,218.90390541299712,219.32062473999758,219.98723986099867,220.48773914299818,219.98723986099867,None,,,,,,9,001,exponential,gyrb,0.35-0.75,2021_May_19_0941,color_judgement_and_subjective_perception,2020.2.10,60.016988048737744,
1,0.9,training,1000,,,,,,0,79,79,79,,,,,,,,,,,,,221.08774330399683,None,f,0.48539512699790066,221.18783723699744,None,220.5876681919981,221.00440522499775,221.70418549599708,222.1887038829991,221.70418549599708,None,,,,,,9,001,exponential,gyrb,0.35-0.75,2021_May_19_0941,color_judgement_and_subjective_perception,2020.2.10,60.016988048737744,
2,0.9,training,1000,,,,,,0,80,80,80,,,,,,,,,,,,,222.78874759799874,None,k,0.3844613620021846,222.88870015899738,None,222.28870363999886,222.70528803999696,223.30507621299694,223.80551864599693,223.30507621299694,None,,,,,,9,001,exponential,gyrb,0.35-0.75,2021_May_19_0941,color_judgement_and_subjective_perception,2020.2.10,60.016988048737744,
3,0.9,training,1000,,,,,,0,81,81,81,,,,,,,,,,,,,224.40593966499728,None,k,0.4872318540001288,224.50600715699693,None,223.90570531499907,224.32245748499918,225.02217745099915,225.5223214639991,225.02217745099915,None,,,,,,9,001,exponential,gyrb,0.35-0.75,2021_May_19_0941,color_judgement_and_subjective_perception,2020.2.10,60.016988048737744,
3,0.9,training,1000,,,,,,0,82,82,82,,,,,,,,,,,,,226.12231509499907,None,k,0.3548240879972582,226.22232917299698,None,225.62241953699777,226.0390714819987,226.60571534199698,227.0902245819998,226.60571534199698,None,,,,,,9,001,exponential,gyrb,0.35-0.75,2021_May_19_0941,color_judgement_and_subjective_perception,2020.2.10,60.016988048737744,
1,0.9,training,1000,,,,,,0,83,83,83,,,,,,,,,,,,,227.69028034499934,None,f,0.6107460310013266,227.7903889429981,None,227.19033029599814,227.60701182799676,228.4235299139982,228.92380516999765,228.4235299139982,None,,,,,,9,001,exponential,gyrb,0.35-0.75,2021_May_19_0941,color_judgement_and_subjective_perception,2020.2.10,60.016988048737744,
2,0.9,training,1000,,,,,,0,84,84,84,,,,,,,,,,,,,229.52365018199998,None,j,0.44932945299660787,229.62382619599884,None,229.02376605799873,229.44040534599844,230.09035825499814,230.5907678429976,230.09035825499814,None,,,,,,9,001,exponential,gyrb,0.35-0.75,2021_May_19_0941,color_judgement_and_subjective_perception,2020.2.10,60.016988048737744,
2,0.9,training,1000,,,,,,0,85,85,85,,,,,,,,,,,,,231.19093682399762,None,j,0.27829599999677157,231.29093279500012,None,230.69069759400008,231.10761942799945,231.5906581349991,232.07519436699658,231.5906581349991,None,,,,,,9,001,exponential,gyrb,0.35-0.75,2021_May_19_0941,color_judgement_and_subjective_perception,2020.2.10,60.016988048737744,
0,0.9,training,1000,,,,,,0,86,86,86,,,,,,,,,,,,,232.67527183699713,None,d,0.6019401359990297,232.77523522099727,None,232.17517918999874,232.59168431299986,233.4084347959979,233.90888448999976,233.4084347959979,None,,,,,,9,001,exponential,gyrb,0.35-0.75,2021_May_19_0941,color_judgement_and_subjective_perception,2020.2.10,60.016988048737744,
1,0.9,training,1000,,,,,,0,87,87,87,,,,,,,,,,,,,234.5091048180002,None,f,0.5922859359998256,234.6089623029984,None,234.0088505049971,234.42566744099895,235.22552077499859,235.72568860999672,235.22552077499859,None,,,,,,9,001,exponential,gyrb,0.35-0.75,2021_May_19_0941,color_judgement_and_subjective_perception,2020.2.10,60.016988048737744,
3,0.9,training,1000,,,,,,0,88,88,88,,,,,,,,,,,,,236.3256458750002,None,k,0.5835850729999947,236.4255819869977,None,235.82564042800004,236.24223588699897,237.0265194599997,237.5269566729985,237.0265194599997,None,,,,,,9,001,exponential,gyrb,0.35-0.75,2021_May_19_0941,color_judgement_and_subjective_perception,2020.2.10,60.016988048737744,
0,0.9,training,1000,,,,,,0,89,89,89,,,,,,,,,,,,,238.12697158699666,None,d,0.6223192289980943,238.22691924599712,None,237.6267613889977,238.04355732899785,238.87686337299965,239.37791762099732,238.87686337299965,None,,,,,,9,001,exponential,gyrb,0.35-0.75,2021_May_19_0941,color_judgement_and_subjective_perception,2020.2.10,60.016988048737744,
3,0.9,training,1000,,,,,,0,90,90,90,,,,,,,,,,,,,239.97697499199785,None,k,0.5161737950002134,240.07697600999745,None,239.4770752819968,239.89374069999758,240.61018279499694,241.11082732499926,240.61018279499694,None,,,,,,9,001,exponential,gyrb,0.35-0.75,2021_May_19_0941,color_judgement_and_subjective_perception,2020.2.10,60.016988048737744,
3,0.9,training,1000,,,,,,0,91,91,91,,,,,,,,,,,,,241.7110152949972,None,k,0.5428579079998599,241.80227111699787,None,241.21064971099986,241.62749926999822,242.3782226359981,242.87853611099854,242.3782226359981,None,,,,,,9,001,exponential,gyrb,0.35-0.75,2021_May_19_0941,color_judgement_and_subjective_perception,2020.2.10,60.016988048737744,
2,0.9,training,1000,,,,,,0,92,92,92,,,,,,,,,,,,,243.47825725999792,None,j,0.39077582199752214,243.57838624099895,None,242.9783291149979,243.3949754139976,243.9936522709977,244.4956317319993,243.9936522709977,None,,,,,,9,001,exponential,gyrb,0.35-0.75,2021_May_19_0941,color_judgement_and_subjective_perception,2020.2.10,60.016988048737744,
3,0.9,training,1000,,,,,,0,93,93,93,,,,,,,,,,,,,245.012426563997,None,k,0.5617347200022778,245.07152475699695,None,244.57888135899702,244.96235565299867,245.66200846799984,246.16210735099958,245.66200846799984,None,,,,,,9,001,exponential,gyrb,0.35-0.75,2021_May_19_0941,color_judgement_and_subjective_perception,2020.2.10,60.016988048737744,
1,0.9,training,1000,,,,,,0,94,94,94,,,,,,,,,,,,,246.7620616139975,None,f,0.6267102759993577,246.846431922997,None,246.2620327730001,246.67872652000005,247.49643612499858,247.9966683499988,247.49643612499858,None,,,,,,9,001,exponential,gyrb,0.35-0.75,2021_May_19_0941,color_judgement_and_subjective_perception,2020.2.10,60.016988048737744,
2,0.9,training,1000,,,,,,0,95,95,95,,,,,,,,,,,,,248.5969754329999,None,j,0.5763390689971857,248.69687899899873,None,248.0967896000002,248.51354987099694,249.29671444199994,249.79716708399792,249.29671444199994,None,,,,,,9,001,exponential,gyrb,0.35-0.75,2021_May_19_0941,color_judgement_and_subjective_perception,2020.2.10,60.016988048737744,
3,0.35,testing,1000,1,,,,,,,,,0,0,0,0,0,0,0,3,,,,,257.06655222599875,None,None,-1,257.1664426049974,None,256.5886209349992,256.9831135869972,258.0837134329995,258.5833368929998,258.0837134329995,None,0,0,37,,,9,001,exponential,gyrb,0.35-0.75,2021_May_19_0941,color_judgement_and_subjective_perception,2020.2.10,60.016988048737744,
2,0.35,testing,1000,1,,,,,,,,,0,0,0,0,0,1,1,2,,,,,259.18348543999673,None,None,-1,259.28333330799796,None,258.6832327899974,259.10022847399887,260.2002036289996,260.70042490999913,260.2002036289996,None,22,7,0,,,9,001,exponential,gyrb,0.35-0.75,2021_May_19_0941,color_judgement_and_subjective_perception,2020.2.10,60.016988048737744,
0,0.35,testing,1000,1,,,,,,,,,0,0,0,0,0,2,2,0,,,,,261.30039632699845,None,None,-1,261.4003878689982,None,260.80022091499995,261.21713434199773,262.30132981899806,262.80135294799766,262.30132981899806,None,0,29,0,,,9,001,exponential,gyrb,0.35-0.75,2021_May_19_0941,color_judgement_and_subjective_perception,2020.2.10,60.016988048737744,
1,0.35,testing,1000,1,,,,,,,,,0,0,0,0,0,3,3,1,,,,,263.40175811099834,None,None,-1,263.50161264899725,None,262.90152657,263.31827273699673,264.41817682299734,264.9183409799989,264.41817682299734,None,26,26,0,,,9,001,exponential,gyrb,0.35-0.75,2021_May_19_0941,color_judgement_and_subjective_perception,2020.2.10,60.016988048737744,
1,0.35,testing,1000,1,,,,,,,,,0,0,0,0,1,0,4,1,,,,,265.51832528199884,None,None,-1,265.6183056159971,None,265.01825318899864,265.43509935199836,266.53535145299975,267.0195482909985,266.53535145299975,None,28,28,0,,,9,001,exponential,gyrb,0.35-0.75,2021_May_19_0941,color_judgement_and_subjective_perception,2020.2.10,60.016988048737744,
2,0.35,testing,1000,1,,,,,,,,,0,0,0,0,1,1,5,2,,,,,267.61948739999934,None,None,-1,267.7195761699986,None,267.1195165539975,267.53620338399924,268.63614319299813,269.1367002989973,268.63614319299813,None,27,9,0,,,9,001,exponential,gyrb,0.35-0.75,2021_May_19_0941,color_judgement_and_subjective_perception,2020.2.10,60.016988048737744,
0,0.35,testing,1000,1,,,,,,,,,0,0,0,0,1,2,6,0,,,,,269.73659330399823,None,None,-1,269.83647718299835,None,269.2366041669993,269.6535195309989,270.7530344299994,271.25338708900017,270.7530344299994,None,0,34,0,,,9,001,exponential,gyrb,0.35-0.75,2021_May_19_0941,color_judgement_and_subjective_perception,2020.2.10,60.016988048737744,
3,0.35,testing,1000,1,,,,,,,,,0,0,0,0,1,3,7,3,,,,,271.83796536799855,None,j,0.3433580009987054,271.93786420499964,None,271.35323864399834,271.7700210339972,272.304357918998,272.8045781669971,272.304357918998,None,0,0,45,,,9,001,exponential,gyrb,0.35-0.75,2021_May_19_0941,color_judgement_and_subjective_perception,2020.2.10,60.016988048737744,
1,0.35,testing,1000,1,,,,,,,,,0,0,0,0,2,0,8,1,,,,,273.40461649299687,None,None,-1,273.50464737499715,None,272.90446106499803,273.3211544489968,274.42114430499714,274.92167878599867,274.42114430499714,None,33,33,0,,,9,001,exponential,gyrb,0.35-0.75,2021_May_19_0941,color_judgement_and_subjective_perception,2020.2.10,60.016988048737744,
2,0.35,testing,1000,1,,,,,,,,,0,0,0,0,2,1,9,2,,,,,275.52171436199933,None,None,-1,275.6217827169967,None,275.02164332999746,275.4383308559991,276.53844218099766,277.0227260819993,276.53844218099766,None,32,11,0,,,9,001,exponential,gyrb,0.35-0.75,2021_May_19_0941,color_judgement_and_subjective_perception,2020.2.10,60.016988048737744,
3,0.35,testing,1000,1,,,,,,,,,0,0,0,0,2,2,10,3,,,,,277.62290819199916,None,None,-1,277.72300383199763,None,277.1227543829991,277.5396965419968,278.63966845899995,279.13988341000004,278.63966845899995,None,0,0,49,,,9,001,exponential,gyrb,0.35-0.75,2021_May_19_0941,color_judgement_and_subjective_perception,2020.2.10,60.016988048737744,
0,0.35,testing,1000,1,,,,,,,,,0,0,0,0,2,3,11,0,,,,,279.73998972999834,None,j,0.8492018389988516,279.8400410569993,None,279.2398642099979,279.6566766750002,280.7063156999975,281.20680176599853,280.7063156999975,None,0,40,0,,,9,001,exponential,gyrb,0.35-0.75,2021_May_19_0941,color_judgement_and_subjective_perception,2020.2.10,60.016988048737744,
3,0.35,testing,1000,1,,,,,,,,,0,0,0,0,3,0,12,3,,,,,281.8052739779996,None,None,-1,281.890879757997,None,281.30648576599924,281.72316404199955,282.80748624699845,283.30787701499867,282.80748624699845,None,0,0,52,,,9,001,exponential,gyrb,0.35-0.75,2021_May_19_0941,color_judgement_and_subjective_perception,2020.2.10,60.016988048737744,
0,0.35,testing,1000,1,,,,,,,,,0,0,0,0,3,1,13,0,,,,,283.9080983939966,None,d,0.8651903049976681,284.0080701199986,None,283.4079257779995,283.82464343099855,284.8912714929975,285.39140147099897,284.8912714929975,None,0,43,0,,,9,001,exponential,gyrb,0.35-0.75,2021_May_19_0941,color_judgement_and_subjective_perception,2020.2.10,60.016988048737744,
2,0.35,testing,1000,1,,,,,,,,,0,0,0,0,3,2,14,2,,,,,285.9913788189988,None,j,0.7337863459979417,286.0913568420001,None,285.4914888289968,285.9080599209992,286.84224577499845,287.3426324510001,286.84224577499845,None,38,13,0,,,9,001,exponential,gyrb,0.35-0.75,2021_May_19_0941,color_judgement_and_subjective_perception,2020.2.10,60.016988048737744,
1,0.35,testing,1000,1,,,,,,,,,0,0,0,0,3,3,15,1,,,,,287.942648152999,None,d,0.63855247399988,288.0426016249985,None,287.4426270240001,287.85941788499986,288.7098474139966,289.20955396499994,288.7098474139966,None,39,39,0,,,9,001,exponential,gyrb,0.35-0.75,2021_May_19_0941,color_judgement_and_subjective_perception,2020.2.10,60.016988048737744,
3,0.35,testing,1000,1,,,,,,,,,0,0,0,0,4,0,16,3,,,,,289.80945518299995,None,k,0.6437219910003478,289.90943488599805,None,289.30948861999786,289.726170594,290.57614861699767,291.0767162429984,290.57614861699767,None,0,0,53,,,9,001,exponential,gyrb,0.35-0.75,2021_May_19_0941,color_judgement_and_subjective_perception,2020.2.10,60.016988048737744,
2,0.35,testing,1000,1,,,,,,,,,0,0,0,0,4,1,17,2,,,,,291.6766432309996,None,j,0.4725057169998763,291.77671769899825,None,291.17659610499686,291.5932863739981,292.27735907399983,292.77763781499743,292.27735907399983,None,36,12,0,,,9,001,exponential,gyrb,0.35-0.75,2021_May_19_0941,color_judgement_and_subjective_perception,2020.2.10,60.016988048737744,
0,0.35,testing,1000,1,,,,,,,,,0,0,0,0,4,2,18,0,,,,,293.3775596799969,None,d,0.5396042059983301,293.47756181599834,None,292.87763498799904,293.2942556019989,294.04420353899695,294.5447441769975,294.04420353899695,None,0,41,0,,,9,001,exponential,gyrb,0.35-0.75,2021_May_19_0941,color_judgement_and_subjective_perception,2020.2.10,60.016988048737744,
1,0.35,testing,1000,1,,,,,,,,,0,0,0,0,4,3,19,1,,,,,295.1447616179976,None,d,0.5485577830004331,295.2447162299977,None,294.64447757099697,295.0613497489976,295.8110588269992,296.31144340099854,295.8110588269992,None,36,36,0,,,9,001,exponential,gyrb,0.35-0.75,2021_May_19_0941,color_judgement_and_subjective_perception,2020.2.10,60.016988048737744,
3,0.35,testing,1000,1,,,,,,,,,0,0,0,0,5,0,20,3,,,,,296.89563067499694,None,k,0.8214280290012539,296.995717324,None,296.41129394999734,296.8191491329999,297.84551287999784,298.34597663899694,297.84551287999784,None,0,0,50,,,9,001,exponential,gyrb,0.35-0.75,2021_May_19_0941,color_judgement_and_subjective_perception,2020.2.10,60.016988048737744,
2,0.35,testing,1000,1,,,,,,,,,0,0,0,0,5,1,21,2,,,,,298.94623900799706,None,f,0.8429666989977704,299.0462672579997,None,298.44590754899764,298.862899415999,299.91275917299936,300.41287873799956,299.91275917299936,None,31,10,0,,,9,001,exponential,gyrb,0.35-0.75,2021_May_19_0941,color_judgement_and_subjective_perception,2020.2.10,60.016988048737744,
0,0.35,testing,1000,1,,,,,,,,,0,0,0,0,5,2,22,0,,,,,301.01289034199726,None,d,0.704246338998928,301.112894564998,None,300.5127772149972,300.929449903997,301.8352501139998,302.33076667599744,301.8352501139998,None,0,36,0,,,9,001,exponential,gyrb,0.35-0.75,2021_May_19_0941,color_judgement_and_subjective_perception,2020.2.10,60.016988048737744,
1,0.35,testing,1000,1,,,,,,,,,0,0,0,0,5,3,23,1,,,,,302.9310471459976,None,k,0.786156170997856,303.0310498769977,None,302.4307759459989,302.8474666439979,303.8474355289982,304.34763090699926,303.8474355289982,None,33,33,0,,,9,001,exponential,gyrb,0.35-0.75,2021_May_19_0941,color_judgement_and_subjective_perception,2020.2.10,60.016988048737744,
2,0.35,testing,1000,1,,,,,,,,,0,0,0,0,6,0,24,2,,,,,304.94764948399825,None,d,0.7935450930017396,305.0475892209979,None,304.4476837149996,304.8643222519968,305.86438313399776,306.36492352599817,305.86438313399776,None,27,9,0,,,9,001,exponential,gyrb,0.35-0.75,2021_May_19_0941,color_judgement_and_subjective_perception,2020.2.10,60.016988048737744,
1,0.35,testing,1000,1,,,,,,,,,0,0,0,0,6,1,25,1,,,,,306.94907756999964,None,d,0.6401621389995853,307.0490580959995,None,306.4648601459994,306.86559809999744,307.71548800899836,308.2157651799971,307.71548800899836,None,34,34,0,,,9,001,exponential,gyrb,0.35-0.75,2021_May_19_0941,color_judgement_and_subjective_perception,2020.2.10,60.016988048737744,
3,0.35,testing,1000,1,,,,,,,,,0,0,0,0,6,2,26,3,,,,,308.81559385999935,None,k,0.5894282420013042,308.91574526899785,None,308.31566927699896,308.7324104039981,309.53227194099964,310.03282240899716,309.53227194099964,None,0,0,47,,,9,001,exponential,gyrb,0.35-0.75,2021_May_19_0941,color_judgement_and_subjective_perception,2020.2.10,60.016988048737744,
0,0.35,testing,1000,1,,,,,,,,,0,0,0,0,6,3,27,0,,,,,310.6329499179992,None,d,0.532329148001736,310.7328746029998,None,310.13276850299735,310.54955421900013,311.2826735130002,311.7828946979971,311.2826735130002,None,0,34,0,,,9,001,exponential,gyrb,0.35-0.75,2021_May_19_0941,color_judgement_and_subjective_perception,2020.2.10,60.016988048737744,
1,0.35,testing,1000,1,,,,,,,,,0,0,0,0,7,0,28,1,,,,,312.3670986039979,None,f,0.8539290870030527,312.4672196169995,None,311.86716648999936,312.28372095399754,313.3503997070002,313.8508124999971,313.3503997070002,None,34,34,0,,,9,001,exponential,gyrb,0.35-0.75,2021_May_19_0941,color_judgement_and_subjective_perception,2020.2.10,60.016988048737744,
2,0.35,testing,1000,1,,,,,,,,,0,0,0,0,7,1,29,2,,,,,314.4509561979976,None,f,0.8981457699992461,314.55108596599894,None,313.95094973499727,314.3678284139969,315.46743810899716,315.96770867399755,315.46743810899716,None,27,9,0,,,9,001,exponential,gyrb,0.35-0.75,2021_May_19_0941,color_judgement_and_subjective_perception,2020.2.10,60.016988048737744,
0,0.35,testing,1000,1,,,,,,,,,0,0,0,0,7,2,30,0,,,,,316.5676262079978,None,d,0.6295414640007948,316.66762504099825,None,316.0676970989989,316.4843106249973,317.31855947099757,317.8188649509975,317.31855947099757,None,0,30,0,,,9,001,exponential,gyrb,0.35-0.75,2021_May_19_0941,color_judgement_and_subjective_perception,2020.2.10,60.016988048737744,
3,0.35,testing,1000,1,,,,,,,,,0,0,0,0,7,3,31,3,,,,,318.4190245439968,None,k,0.49023302900241106,318.51900583199676,None,317.9187803529967,318.3357211980001,319.035558091,319.53572404499937,319.035558091,None,0,0,41,,,9,001,exponential,gyrb,0.35-0.75,2021_May_19_0941,color_judgement_and_subjective_perception,2020.2.10,60.016988048737744,
3,0.35,testing,1000,1,,,,,,,,,0,0,0,0,8,0,32,3,,,,,320.1358090349968,None,k,0.7093646590001299,320.23579199699816,None,319.6357489919974,320.0524057069997,320.969029787997,321.4695101869984,320.969029787997,None,0,0,39,,,9,001,exponential,gyrb,0.35-0.75,2021_May_19_0941,color_judgement_and_subjective_perception,2020.2.10,60.016988048737744,
0,0.35,testing,1000,1,,,,,,,,,0,0,0,0,8,1,33,0,,,,,322.0539622739998,None,d,0.6393586609992781,322.1538672559982,None,321.5694034699991,321.9705958489976,322.82032676699964,323.3205587140001,322.82032676699964,None,0,26,0,,,9,001,exponential,gyrb,0.35-0.75,2021_May_19_0941,color_judgement_and_subjective_perception,2020.2.10,60.016988048737744,
2,0.35,testing,1000,1,,,,,,,,,0,0,0,0,8,2,34,2,,,,,323.9204544079985,None,f,0.7087852930017107,324.02035119899665,None,323.42039894799746,323.83713746399735,324.7538064499968,325.25428528799966,324.7538064499968,None,23,8,0,,,9,001,exponential,gyrb,0.35-0.75,2021_May_19_0941,color_judgement_and_subjective_perception,2020.2.10,60.016988048737744,
1,0.35,testing,1000,1,,,,,,,,,0,0,0,0,8,3,35,1,,,,,325.85437951399945,None,None,-1,325.95439336399795,None,325.3542494829999,325.7712208149969,326.85520572199675,327.3553303899971,326.85520572199675,None,28,28,0,,,9,001,exponential,gyrb,0.35-0.75,2021_May_19_0941,color_judgement_and_subjective_perception,2020.2.10,60.016988048737744,
2,0.35,testing,1000,1,,,,,,,,,0,0,0,0,9,0,36,2,,,,,327.9553157349983,None,k,0.5298042050017102,328.0553579399966,None,327.4553000269989,327.8719361779986,328.60512732799907,329.1057394749987,328.60512732799907,None,22,7,0,,,9,001,exponential,gyrb,0.35-0.75,2021_May_19_0941,color_judgement_and_subjective_perception,2020.2.10,60.016988048737744,
1,0.35,testing,1000,1,,,,,,,,,0,0,0,0,9,1,37,1,,,,,329.7058439100001,None,k,0.5793886989995372,329.8058414249972,None,329.2057193189976,329.6225947879975,330.4056116759966,330.90575578599965,330.4056116759966,None,29,29,0,,,9,001,exponential,gyrb,0.35-0.75,2021_May_19_0941,color_judgement_and_subjective_perception,2020.2.10,60.016988048737744,
3,0.35,testing,1000,1,,,,,,,,,0,0,0,0,9,2,38,3,,,,,331.5056813459996,None,None,-1,331.60576509599923,None,331.0057510229999,331.4223403549986,332.5066155229979,333.0068600220002,332.5066155229979,None,0,0,36,,,9,001,exponential,gyrb,0.35-0.75,2021_May_19_0941,color_judgement_and_subjective_perception,2020.2.10,60.016988048737744,
0,0.35,testing,1000,1,,,,,,,,,0,0,0,0,9,3,39,0,,,,,333.60716923899963,None,d,0.45391663200280163,333.7072854459984,None,333.10687994199907,333.5237771769971,334.190291425999,334.69059869699777,334.190291425999,None,0,25,0,,,9,001,exponential,gyrb,0.35-0.75,2021_May_19_0941,color_judgement_and_subjective_perception,2020.2.10,60.016988048737744,
0,0.35,testing,1000,1,,,,,,,,,0,0,0,0,10,0,40,0,,,,,335.29057961799845,None,k,0.6746737370012852,335.3904863019998,None,334.79061528199964,335.20701688699774,336.0904205400002,336.5910027459977,336.0904205400002,None,0,23,0,,,9,001,exponential,gyrb,0.35-0.75,2021_May_19_0941,color_judgement_and_subjective_perception,2020.2.10,60.016988048737744,
3,0.35,testing,1000,1,,,,,,,,,0,0,0,0,10,1,41,3,,,,,337.1751321349984,None,f,0.5178787329969055,337.2753601029981,None,336.69083607099674,337.09193712699926,337.82497125699956,338.32525773199814,337.82497125699956,None,0,0,36,,,9,001,exponential,gyrb,0.35-0.75,2021_May_19_0941,color_judgement_and_subjective_perception,2020.2.10,60.016988048737744,
2,0.35,testing,1000,1,,,,,,,,,0,0,0,0,10,2,42,2,,,,,338.92512948799776,None,d,0.6959448210000119,339.0252330959993,None,338.4251996719977,338.8418986029974,339.74191371899724,340.24226130499665,339.74191371899724,None,27,9,0,,,9,001,exponential,gyrb,0.35-0.75,2021_May_19_0941,color_judgement_and_subjective_perception,2020.2.10,60.016988048737744,
1,0.35,testing,1000,1,,,,,,,,,0,0,0,0,10,3,43,1,,,,,340.8422680139993,None,d,0.8268402089997835,340.9423824229998,None,340.34230227699663,340.75920295499964,341.792306239,342.2767069909969,341.792306239,None,34,34,0,,,9,001,exponential,gyrb,0.35-0.75,2021_May_19_0941,color_judgement_and_subjective_perception,2020.2.10,60.016988048737744,
0,0.35,testing,1000,1,,,,,,,,,0,0,0,0,11,0,44,0,,,,,342.87671236799724,None,None,-1,342.97669280399714,None,342.37669535199893,342.7932968419991,343.893368052999,344.3938542279975,343.893368052999,None,0,26,0,,,9,001,exponential,gyrb,0.35-0.75,2021_May_19_0941,color_judgement_and_subjective_perception,2020.2.10,60.016988048737744,
3,0.35,testing,1000,1,,,,,,,,,0,0,0,0,11,1,45,3,,,,,344.9939524429974,None,k,0.6673002060015278,345.0938678450002,None,344.4938083959969,344.9106072509967,345.7937726209966,346.29400308799814,345.7937726209966,None,0,0,39,,,9,001,exponential,gyrb,0.35-0.75,2021_May_19_0941,color_judgement_and_subjective_perception,2020.2.10,60.016988048737744,
2,0.35,testing,1000,1,,,,,,,,,0,0,0,0,11,2,46,2,,,,,346.8781500089972,None,d,0.7989118969999254,346.9782545989983,None,346.39385560899973,346.81043920199954,347.7947185469966,348.29519651699957,347.7947185469966,None,32,11,0,,,9,001,exponential,gyrb,0.35-0.75,2021_May_19_0941,color_judgement_and_subjective_perception,2020.2.10,60.016988048737744,
1,0.35,testing,1000,1,,,,,,,,,0,0,0,0,11,3,47,1,,,,,348.89536246499847,None,d,0.5898345319983491,348.9953896839979,None,348.3950732899975,348.81199947599816,349.6118670319993,350.11208919399724,349.6118670319993,None,39,39,0,,,9,001,exponential,gyrb,0.35-0.75,2021_May_19_0941,color_judgement_and_subjective_perception,2020.2.10,60.016988048737744,
0,0.35,testing,1000,1,,,,,,,,,0,0,0,0,12,0,48,0,,,,,350.7119686289989,None,f,0.5412130740005523,350.81194882699856,None,350.2120245599981,350.62861987299766,351.3785386620002,351.8634855809978,351.3785386620002,None,0,29,0,,,9,001,exponential,gyrb,0.35-0.75,2021_May_19_0941,color_judgement_and_subjective_perception,2020.2.10,60.016988048737744,
3,0.35,testing,1000,1,,,,,,,,,0,0,0,0,12,1,49,3,,,,,352.46364239299874,None,k,0.5178783599985763,352.56335393100017,None,351.9632772979967,352.380075563,353.113224212997,353.6137224569975,353.113224212997,None,0,0,42,,,9,001,exponential,gyrb,0.35-0.75,2021_May_19_0941,color_judgement_and_subjective_perception,2020.2.10,60.016988048737744,
2,0.35,testing,1000,1,,,,,,,,,0,0,0,0,12,2,50,2,,,,,354.2134525199981,None,None,-1,354.3134266299967,None,353.7133921509994,354.13010717999714,355.2300114919999,355.7306971129983,355.2300114919999,None,35,12,0,,,9,001,exponential,gyrb,0.35-0.75,2021_May_19_0941,color_judgement_and_subjective_perception,2020.2.10,60.016988048737744,
1,0.35,testing,1000,1,,,,,,,,,0,0,0,0,12,3,51,1,,,,,356.33054454899684,None,d,0.7705306829993788,356.43071274799877,None,355.83044625299954,356.24726246999853,357.2313598469991,357.7316167359968,357.2313598469991,None,42,42,0,,,9,001,exponential,gyrb,0.35-0.75,2021_May_19_0941,color_judgement_and_subjective_perception,2020.2.10,60.016988048737744,
3,0.35,testing,1000,1,,,,,,,,,0,0,0,0,13,0,52,3,,,,,358.3315173649971,None,k,0.657734682001319,358.4314480569992,None,357.83144047599853,358.2481598719969,359.1147046929982,359.61528465599986,359.1147046929982,None,0,0,42,,,9,001,exponential,gyrb,0.35-0.75,2021_May_19_0941,color_judgement_and_subjective_perception,2020.2.10,60.016988048737744,
1,0.35,testing,1000,1,,,,,,,,,0,0,0,0,13,1,53,1,,,,,360.21538335999867,None,d,0.5178290629992262,360.31537312199725,None,359.71513349999805,360.1320543719994,360.865632265999,361.3653810609976,360.865632265999,None,43,43,0,,,9,001,exponential,gyrb,0.35-0.75,2021_May_19_0941,color_judgement_and_subjective_perception,2020.2.10,60.016988048737744,
0,0.35,testing,1000,1,,,,,,,,,0,0,0,0,13,2,54,0,,,,,361.94973866500004,None,f,0.3674990559993603,362.0496547900002,None,361.46522675399683,361.86640997499853,362.4495248789972,362.94983309300005,362.4495248789972,None,0,32,0,,,9,001,exponential,gyrb,0.35-0.75,2021_May_19_0941,color_judgement_and_subjective_perception,2020.2.10,60.016988048737744,
2,0.35,testing,1000,1,,,,,,,,,0,0,0,0,13,3,55,2,,,,,363.5500810579979,None,None,-1,363.65008192099776,None,363.04972648999683,363.46658617399953,364.56651028099805,365.0669194869988,364.56651028099805,None,39,13,0,,,9,001,exponential,gyrb,0.35-0.75,2021_May_19_0941,color_judgement_and_subjective_perception,2020.2.10,60.016988048737744,
0,0.35,testing,1000,1,,,,,,,,,0,0,0,0,14,0,56,0,,,,,365.66682117599703,None,None,-1,365.76691922999817,None,365.1666998499968,365.5834594449989,366.6833971229971,367.1681897589988,366.6833971229971,None,0,35,0,,,9,001,exponential,gyrb,0.35-0.75,2021_May_19_0941,color_judgement_and_subjective_perception,2020.2.10,60.016988048737744,
2,0.35,testing,1000,1,,,,,,,,,0,0,0,0,14,1,57,2,,,,,367.7680921350002,None,k,0.4851607340024202,367.86806557399905,None,367.2678801339971,367.6847082669992,368.38487001999965,368.8848906099993,368.38487001999965,None,42,14,0,,,9,001,exponential,gyrb,0.35-0.75,2021_May_19_0941,color_judgement_and_subjective_perception,2020.2.10,60.016988048737744,
1,0.35,testing,1000,1,,,,,,,,,0,0,0,0,14,2,58,1,,,,,369.484870125998,None,d,0.5042896689992631,369.58486853299837,None,368.9846755499966,369.40146425299827,370.11820934299976,370.6183244859967,370.11820934299976,None,49,49,0,,,9,001,exponential,gyrb,0.35-0.75,2021_May_19_0941,color_judgement_and_subjective_perception,2020.2.10,60.016988048737744,
3,0.35,testing,1000,1,,,,,,,,,0,0,0,0,14,3,59,3,,,,,371.21863573299925,None,k,0.5305973780014028,371.31863463399714,None,370.71841626199966,371.13533637999717,371.8694056949971,372.3696044449971,371.8694056949971,None,0,0,46,,,9,001,exponential,gyrb,0.35-0.75,2021_May_19_0941,color_judgement_and_subjective_perception,2020.2.10,60.016988048737744,
0,0.35,testing,1000,1,,,,,,,,,0,0,0,0,15,0,60,0,,,,,372.9696050499988,None,d,0.4755568399996264,373.06959490699955,None,372.4695313989978,372.88618056199994,373.569520148998,374.06964157199764,373.569520148998,None,0,40,0,,,9,001,exponential,gyrb,0.35-0.75,2021_May_19_0941,color_judgement_and_subjective_perception,2020.2.10,60.016988048737744,
2,0.35,testing,1000,1,,,,,,,,,0,0,0,0,15,1,61,2,,,,,374.67019527499724,None,j,0.415078113997879,374.7701636109996,None,374.16991848699763,374.5867555449986,375.20313103399894,375.7033605669967,375.20313103399894,None,45,15,0,,,9,001,exponential,gyrb,0.35-0.75,2021_May_19_0941,color_judgement_and_subjective_perception,2020.2.10,60.016988048737744,
1,0.35,testing,1000,1,,,,,,,,,0,0,0,0,15,2,62,1,,,,,376.30328440899757,None,d,0.5098580769990804,376.4032918140001,None,375.80328917099905,376.21990508999806,376.93751719399734,377.4377499989969,376.93751719399734,None,50,50,0,,,9,001,exponential,gyrb,0.35-0.75,2021_May_19_0941,color_judgement_and_subjective_perception,2020.2.10,60.016988048737744,
3,0.35,testing,1000,1,,,,,,,,,0,0,0,0,15,3,63,3,,,,,378.0378129290002,None,k,0.4954177500003425,378.137789436998,None,377.53792090099887,377.95469357899856,378.6545075099966,379.15476847099853,378.6545075099966,None,0,0,43,,,9,001,exponential,gyrb,0.35-0.75,2021_May_19_0941,color_judgement_and_subjective_perception,2020.2.10,60.016988048737744,
3,0.35,testing,1000,1,,,,,,,,,0,0,0,0,16,0,64,3,,,,,379.7547489259996,None,k,0.6663392580012442,379.85482159899766,None,379.2546484630002,379.6714697489988,380.5379538699999,381.03844735099847,380.5379538699999,None,0,0,41,,,9,001,exponential,gyrb,0.35-0.75,2021_May_19_0941,color_judgement_and_subjective_perception,2020.2.10,60.016988048737744,
0,0.35,testing,1000,1,,,,,,,,,0,0,0,0,16,1,65,0,,,,,381.63856212799874,None,d,0.7344715290018939,381.73864310799763,None,381.1383731089991,381.5551990219974,382.5058826989989,383.00612908999756,382.5058826989989,None,0,34,0,,,9,001,exponential,gyrb,0.35-0.75,2021_May_19_0941,color_judgement_and_subjective_perception,2020.2.10,60.016988048737744,
1,0.35,testing,1000,1,,,,,,,,,0,0,0,0,16,2,66,1,,,,,383.60609931999716,None,d,0.8950643809985195,383.70610652899995,None,383.1059865649986,383.52285766899877,384.62276056599876,385.123317698999,384.62276056599876,None,47,47,0,,,9,001,exponential,gyrb,0.35-0.75,2021_May_19_0941,color_judgement_and_subjective_perception,2020.2.10,60.016988048737744,
2,0.35,testing,1000,1,,,,,,,,,0,0,0,0,16,3,67,2,,,,,385.7233103159997,None,k,0.4978905339994526,385.8233052249998,None,385.22311145799904,385.63997952799764,386.3397580799974,386.8387611069993,386.3397580799974,None,40,13,0,,,9,001,exponential,gyrb,0.35-0.75,2021_May_19_0941,color_judgement_and_subjective_perception,2020.2.10,60.016988048737744,
2,0.35,testing,1000,1,,,,,,,,,0,0,0,0,17,0,68,2,,,,,387.424294870998,None,j,0.44490455399864004,387.5242738499983,None,386.9241928559968,387.3408614639993,387.9907520009983,388.4910765379973,387.9907520009983,None,40,13,0,,,9,001,exponential,gyrb,0.35-0.75,2021_May_19_0941,color_judgement_and_subjective_perception,2020.2.10,60.016988048737744,
3,0.35,testing,1000,1,,,,,,,,,0,0,0,0,17,1,69,3,,,,,389.09148806399753,None,k,0.6177899899994372,389.1914818109981,None,388.5909225939977,389.00813561999894,389.8412228829984,390.34143389699966,389.8412228829984,None,0,0,35,,,9,001,exponential,gyrb,0.35-0.75,2021_May_19_0941,color_judgement_and_subjective_perception,2020.2.10,60.016988048737744,
0,0.35,testing,1000,1,,,,,,,,,0,0,0,0,17,2,70,0,,,,,390.9414382349969,None,d,0.6717273350004689,391.0414293419999,None,390.44137277199843,390.85790931099837,391.741251948999,392.226054499999,391.741251948999,None,0,28,0,,,9,001,exponential,gyrb,0.35-0.75,2021_May_19_0941,color_judgement_and_subjective_perception,2020.2.10,60.016988048737744,
1,0.35,testing,1000,1,,,,,,,,,0,0,0,0,17,3,71,1,,,,,392.82585310599825,None,d,0.8592395000014221,392.9259844169974,None,392.32591939899794,392.7427371889971,393.80951348300005,394.3096012479982,393.80951348300005,None,43,43,0,,,9,001,exponential,gyrb,0.35-0.75,2021_May_19_0941,color_judgement_and_subjective_perception,2020.2.10,60.016988048737744,
2,0.35,testing,1000,1,,,,,,,,,0,0,0,0,18,0,72,2,,,,,394.90960977099894,None,None,-1,395.00957434799784,None,394.40954079699804,394.82613212799697,395.92613034499664,396.426602861,395.92613034499664,None,35,12,0,,,9,001,exponential,gyrb,0.35-0.75,2021_May_19_0941,color_judgement_and_subjective_perception,2020.2.10,60.016988048737744,
1,0.35,testing,1000,1,,,,,,,,,0,0,0,0,18,1,73,1,,,,,397.01085468999736,None,d,0.6982896600020467,397.11095406499953,None,396.5265127439998,396.9276200719978,397.82736454899714,398.32768665099866,397.82736454899714,None,42,42,0,,,9,001,exponential,gyrb,0.35-0.75,2021_May_19_0941,color_judgement_and_subjective_perception,2020.2.10,60.016988048737744,
3,0.35,testing,1000,1,,,,,,,,,0,0,0,0,18,2,74,3,,,,,398.92768239,None,k,0.47750488000019686,399.02763187099845,None,398.4276646779981,398.8442798010001,399.52749349199803,400.0278728259982,399.52749349199803,None,0,0,31,,,9,001,exponential,gyrb,0.35-0.75,2021_May_19_0941,color_judgement_and_subjective_perception,2020.2.10,60.016988048737744,
0,0.35,testing,1000,1,,,,,,,,,0,0,0,0,18,3,75,0,,,,,400.6280768739998,None,d,0.6653034759983711,400.7279368210002,None,400.1279452769995,400.5447248959972,401.4112226189973,401.8958361329969,401.4112226189973,None,0,24,0,,,9,001,exponential,gyrb,0.35-0.75,2021_May_19_0941,color_judgement_and_subjective_perception,2020.2.10,60.016988048737744,
1,0.35,testing,1000,1,,,,,,,,,0,0,0,0,19,0,76,1,,,,,402.4957003419986,None,d,0.7413242880029429,402.59582944700014,None,401.99558544499814,402.4124438990002,403.36226988199996,403.8627176669979,403.36226988199996,None,42,42,0,,,9,001,exponential,gyrb,0.35-0.75,2021_May_19_0941,color_judgement_and_subjective_perception,2020.2.10,60.016988048737744,
0,0.35,testing,1000,1,,,,,,,,,0,0,0,0,19,1,77,0,,,,,404.46310436099884,None,d,0.7514852910026093,404.5616400609979,None,403.96276814999874,404.3796159079975,405.3460037099976,405.84622287099774,405.3460037099976,None,0,21,0,,,9,001,exponential,gyrb,0.35-0.75,2021_May_19_0941,color_judgement_and_subjective_perception,2020.2.10,60.016988048737744,
3,0.35,testing,1000,1,,,,,,,,,0,0,0,0,19,2,78,3,,,,,406.4461670359997,None,k,0.3989202299999306,406.5462518589993,None,405.94618134399934,406.36295137199704,406.96372081299705,407.46390068399705,406.96372081299705,None,0,0,26,,,9,001,exponential,gyrb,0.35-0.75,2021_May_19_0941,color_judgement_and_subjective_perception,2020.2.10,60.016988048737744,
2,0.35,testing,1000,1,,,,,,,,,0,0,0,0,19,3,79,2,,,,,408.06423163399813,None,f,0.8130836420023115,408.1641591169973,None,407.56389980999666,407.9808175779981,408.99740132999796,409.4976165829976,408.99740132999796,None,31,10,0,,,9,001,exponential,gyrb,0.35-0.75,2021_May_19_0941,color_judgement_and_subjective_perception,2020.2.10,60.016988048737744,
2,0.35,testing,1000,1,,,,,,,,,0,0,0,0,20,0,80,2,,,,,410.09755240899904,None,j,0.6196031100007531,410.19755961699775,None,409.5975754559986,410.0143301899989,410.8475772169986,411.34814536699923,410.8475772169986,None,31,10,0,,,9,001,exponential,gyrb,0.35-0.75,2021_May_19_0941,color_judgement_and_subjective_perception,2020.2.10,60.016988048737744,
0,0.35,testing,1000,1,,,,,,,,,0,0,0,0,20,1,81,0,,,,,411.9325196519967,None,j,0.8491064230001939,412.0321094369974,None,411.4478823039972,411.85591717499847,412.8988046159975,413.399079726998,412.8988046159975,None,0,16,0,,,9,001,exponential,gyrb,0.35-0.75,2021_May_19_0941,color_judgement_and_subjective_perception,2020.2.10,60.016988048737744,
3,0.35,testing,1000,1,,,,,,,,,0,0,0,0,20,2,82,3,,,,,413.9990327739979,None,k,0.4781377399995108,414.09900966999703,None,413.49896858899956,413.9156836339971,414.598934439,415.09948547199747,414.598934439,None,0,0,21,,,9,001,exponential,gyrb,0.35-0.75,2021_May_19_0941,color_judgement_and_subjective_perception,2020.2.10,60.016988048737744,
1,0.35,testing,1000,1,,,,,,,,,0,0,0,0,20,3,83,1,,,,,415.6996324739994,None,d,0.5377412639973045,415.79949342799955,None,415.19953042499765,415.6161301619977,416.3659791329992,416.85751712099955,416.3659791329992,None,36,36,0,,,9,001,exponential,gyrb,0.35-0.75,2021_May_19_0941,color_judgement_and_subjective_perception,2020.2.10,60.016988048737744,
2,0.35,testing,1000,1,,,,,,,,,0,0,0,0,21,0,84,2,,,,,417.45060772399665,None,d,0.6586866350007767,417.55045732599683,None,416.950436496998,417.367045084,418.2336445419969,418.73416418899797,418.2336445419969,None,26,9,0,,,9,001,exponential,gyrb,0.35-0.75,2021_May_19_0941,color_judgement_and_subjective_perception,2020.2.10,60.016988048737744,
3,0.35,testing,1000,1,,,,,,,,,0,0,0,0,21,1,85,3,,,,,419.334206102998,None,k,0.6070362440004828,419.4342156979983,None,418.8342198809987,419.25096550599847,420.0674244799993,420.56770347499696,420.0674244799993,None,0,0,19,,,9,001,exponential,gyrb,0.35-0.75,2021_May_19_0941,color_judgement_and_subjective_perception,2020.2.10,60.016988048737744,
1,0.35,testing,1000,1,,,,,,,,,0,0,0,0,21,2,86,1,,,,,421.16755276799813,None,k,0.6455737590003991,421.2675402329987,None,420.6675783199971,421.08420847399975,421.93512076799743,422.43546646899995,421.93512076799743,None,36,36,0,,,9,001,exponential,gyrb,0.35-0.75,2021_May_19_0941,color_judgement_and_subjective_perception,2020.2.10,60.016988048737744,
0,0.35,testing,1000,1,,,,,,,,,0,0,0,0,21,3,87,0,,,,,423.035595440997,None,d,0.5536353839997901,423.1356190029983,None,422.5355349019992,422.95227058899764,423.7187157439985,424.2190126889982,423.7187157439985,None,0,11,0,,,9,001,exponential,gyrb,0.35-0.75,2021_May_19_0941,color_judgement_and_subjective_perception,2020.2.10,60.016988048737744,
2,0.35,testing,1000,1,,,,,,,,,0,0,0,0,22,0,88,2,,,,,424.8191183349991,None,f,0.8500984320016869,424.9190692329976,None,424.31901476099665,424.7357209549991,425.78566985999714,426.2861859730001,425.78566985999714,None,25,8,0,,,9,001,exponential,gyrb,0.35-0.75,2021_May_19_0941,color_judgement_and_subjective_perception,2020.2.10,60.016988048737744,
3,0.35,testing,1000,1,,,,,,,,,0,0,0,0,22,1,89,3,,,,,426.87085421499796,None,k,0.6947845440008678,426.9704535059973,None,426.3860718319993,426.802931809998,427.68691742399824,428.18723011699694,427.68691742399824,None,0,0,14,,,9,001,exponential,gyrb,0.35-0.75,2021_May_19_0941,color_judgement_and_subjective_perception,2020.2.10,60.016988048737744,
0,0.35,testing,1000,1,,,,,,,,,0,0,0,0,22,2,90,0,,,,,428.78723798899955,None,None,-1,428.88714016099766,None,428.2870609799975,428.70385258999886,429.803817920998,430.3042737479991,429.803817920998,None,0,7,0,,,9,001,exponential,gyrb,0.35-0.75,2021_May_19_0941,color_judgement_and_subjective_perception,2020.2.10,60.016988048737744,
1,0.35,testing,1000,1,,,,,,,,,0,0,0,0,22,3,91,1,,,,,430.9043275369986,None,d,0.5887575829983689,431.0044600109977,None,430.4042851649974,430.82081825099885,431.6207334999999,432.105462255,431.6207334999999,None,32,32,0,,,9,001,exponential,gyrb,0.35-0.75,2021_May_19_0941,color_judgement_and_subjective_perception,2020.2.10,60.016988048737744,
2,0.35,testing,1000,1,,,,,,,,,0,0,0,0,23,0,92,2,,,,,432.70529713499855,None,k,0.6279939509986434,432.80516553399866,None,432.2051466319972,432.62201578599706,433.45515106699895,433.955754290997,433.45515106699895,None,24,8,0,,,9,001,exponential,gyrb,0.35-0.75,2021_May_19_0941,color_judgement_and_subjective_perception,2020.2.10,60.016988048737744,
1,0.35,testing,1000,1,,,,,,,,,0,0,0,0,23,1,93,1,,,,,434.5557611899967,None,d,0.7215188209993357,434.6556671090002,None,434.0555832499995,434.47252657199715,435.40550642999733,435.90568873499797,435.40550642999733,None,35,35,0,,,9,001,exponential,gyrb,0.35-0.75,2021_May_19_0941,color_judgement_and_subjective_perception,2020.2.10,60.016988048737744,
3,0.35,testing,1000,1,,,,,,,,,0,0,0,0,23,2,94,3,,,,,436.5057428709988,None,k,0.6274101810013235,436.605730897998,None,436.00565321999966,436.4224591079983,437.25660717199935,437.7570207519966,437.25660717199935,None,0,0,14,,,9,001,exponential,gyrb,0.35-0.75,2021_May_19_0941,color_judgement_and_subjective_perception,2020.2.10,60.016988048737744,
0,0.35,testing,1000,1,,,,,,,,,0,0,0,0,23,3,95,0,,,,,438.3570039139995,None,k,0.6002075989999867,438.45691981399796,None,437.8570115839975,438.2736627049999,439.0735084259977,439.5738200380001,439.0735084259977,None,0,7,0,,,9,001,exponential,gyrb,0.35-0.75,2021_May_19_0941,color_judgement_and_subjective_perception,2020.2.10,60.016988048737744,
1,0.35,testing,1000,1,,,,,,,,,0,0,0,0,,,,,0,0,0,1,446.092422447,None,None,-1,446.1925320199989,None,445.59238814799755,446.00892985399696,447.0952977079978,447.59343618799903,447.0952977079978,None,37,37,0,439.696631548999,None,9,001,exponential,gyrb,0.35-0.75,2021_May_19_0941,color_judgement_and_subjective_perception,2020.2.10,60.016988048737744,
3,0.35,testing,1000,1,,,,,,,,,0,0,0,0,,,,,0,1,1,3,448.19338991999757,None,k,0.5158395069993276,448.2933445219969,None,447.69325683999705,448.1103389689997,448.82894789999773,449.3268061659983,448.82894789999773,None,0,0,14,None,None,9,001,exponential,gyrb,0.35-0.75,2021_May_19_0941,color_judgement_and_subjective_perception,2020.2.10,60.016988048737744,
1,0.35,testing,1000,1,,,,,,,,,0,0,0,0,,,,,0,2,2,1,449.9271569249977,None,d,0.806088073997671,450.0271552209997,None,449.42676455699984,449.8439355299997,450.863501607997,451.36054609299754,450.863501607997,None,38,38,0,None,None,9,001,exponential,gyrb,0.35-0.75,2021_May_19_0941,color_judgement_and_subjective_perception,2020.2.10,60.016988048737744,
3,0.35,testing,1000,1,,,,,,,,,0,0,0,0,,,,,0,3,3,3,451.9447815179992,None,k,0.5323649880010635,452.04479528199954,None,451.4604078349985,451.8685979539987,452.59677225199994,453.0948844359991,452.59677225199994,None,0,0,13,None,None,9,001,exponential,gyrb,0.35-0.75,2021_May_19_0941,color_judgement_and_subjective_perception,2020.2.10,60.016988048737744,
1,0.35,testing,1000,1,,,,,,,,,0,0,0,0,,,,,1,0,4,1,453.6952370559993,None,d,0.5499049339996418,453.79529956499755,None,453.19507013199836,453.611835978998,454.36476281700016,454.81229977600015,454.36476281700016,None,39,39,0,None,None,9,001,exponential,gyrb,0.35-0.75,2021_May_19_0941,color_judgement_and_subjective_perception,2020.2.10,60.016988048737744,
2,0.35,testing,1000,1,,,,,,,,,0,0,0,0,,,,,1,1,5,2,455.4119517459985,None,k,0.529098642997269,455.5120164729997,None,454.9117780179986,455.32882379500006,456.06190275599874,456.56196706599803,456.06190275599874,None,26,9,0,None,None,9,001,exponential,gyrb,0.35-0.75,2021_May_19_0941,color_judgement_and_subjective_perception,2020.2.10,60.016988048737744,
2,0.35,testing,1000,1,,,,,,,,,0,0,0,0,,,,,1,2,6,2,457.14678996399743,None,k,0.7386101669981144,457.2466403679973,None,456.6617528279967,457.0634159649999,458.0133127019981,458.5133921050001,458.0133127019981,None,28,9,0,None,None,9,001,exponential,gyrb,0.35-0.75,2021_May_19_0941,color_judgement_and_subjective_perception,2020.2.10,60.016988048737744,
3,0.35,testing,1000,1,,,,,,,,,0,0,0,0,,,,,1,3,7,3,459.1133159339988,None,f,0.859816389001935,459.2133249219987,None,458.6132679819966,459.03013703399847,460.0967585059989,460.5970601259978,460.0967585059989,None,0,0,12,None,None,9,001,exponential,gyrb,0.35-0.75,2021_May_19_0941,color_judgement_and_subjective_perception,2020.2.10,60.016988048737744,
2,0.35,testing,1000,1,,,,,,,,,0,0,0,0,,,,,2,0,8,2,461.1971298509998,None,j,0.6720544689997041,461.2971618949996,None,460.6968655599994,461.11396126899854,462.0001964169969,462.49811290199796,462.0001964169969,None,31,10,0,None,None,9,001,exponential,gyrb,0.35-0.75,2021_May_19_0941,color_judgement_and_subjective_perception,2020.2.10,60.016988048737744,
3,0.35,testing,1000,1,,,,,,,,,0,0,0,0,,,,,2,1,9,3,463.09819323099873,None,d,0.6990478919979068,463.19812369099964,None,462.5979984459991,463.01499218099707,463.91684276399974,464.4153530019976,463.91684276399974,None,0,0,11,None,None,9,001,exponential,gyrb,0.35-0.75,2021_May_19_0941,color_judgement_and_subjective_perception,2020.2.10,60.016988048737744,
0,0.35,testing,1000,1,,,,,,,,,0,0,0,0,,,,,2,2,10,0,465.01533693300007,None,k,0.5417609750002157,465.11545681200005,None,464.51513163599884,464.9321241589969,465.6825811639974,466.1820849179967,465.6825811639974,None,0,9,0,None,None,9,001,exponential,gyrb,0.35-0.75,2021_May_19_0941,color_judgement_and_subjective_perception,2020.2.10,60.016988048737744,
0,0.35,testing,1000,1,,,,,,,,,0,0,0,0,,,,,2,3,11,0,466.78196893399945,None,None,-1,466.8732620009978,None,466.2817567079983,466.69871701199736,467.78329367399783,468.2831702179974,467.78329367399783,None,0,11,0,None,None,9,001,exponential,gyrb,0.35-0.75,2021_May_19_0941,color_judgement_and_subjective_perception,2020.2.10,60.016988048737744,
0,0.35,testing,1000,1,,,,,,,,,0,0,0,0,,,,,3,0,12,0,468.8833954429974,None,k,0.3698544459984987,468.98337105399696,None,468.38316294099786,468.80001739999716,469.3854734769993,469.8834713219985,469.3854734769993,None,0,13,0,None,None,9,001,exponential,gyrb,0.35-0.75,2021_May_19_0941,color_judgement_and_subjective_perception,2020.2.10,60.016988048737744,
0,0.35,testing,1000,1,,,,,,,,,0,0,0,0,,,,,3,1,13,0,470.48346258499805,None,None,-1,470.5833801489971,None,469.9832680419968,470.4002004899994,471.50024648699764,471.984822102997,471.50024648699764,None,0,15,0,None,None,9,001,exponential,gyrb,0.35-0.75,2021_May_19_0941,color_judgement_and_subjective_perception,2020.2.10,60.016988048737744,
0,0.35,testing,1000,1,,,,,,,,,0,0,0,0,,,,,3,2,14,0,472.58462602799773,None,k,0.7886208090021682,472.68462265999915,None,472.0845688559966,472.5015158879978,473.50373380999736,474.00151151299724,473.50373380999736,None,0,17,0,None,None,9,001,exponential,gyrb,0.35-0.75,2021_May_19_0941,color_judgement_and_subjective_perception,2020.2.10,60.016988048737744,
0,0.35,testing,1000,1,,,,,,,,,0,0,0,0,,,,,3,3,15,0,474.60156933599865,None,d,0.5795715860003838,474.70157191499675,None,474.1012390459982,474.5183076709982,475.3028509649994,475.8016436339967,475.3028509649994,None,0,19,0,None,None,9,001,exponential,gyrb,0.35-0.75,2021_May_19_0941,color_judgement_and_subjective_perception,2020.2.10,60.016988048737744,
3,0.35,testing,1000,1,,,,,,,,,0,0,0,0,,,,,4,0,16,3,476.40218732799985,None,k,0.7232119340005738,476.50202646099933,None,475.9017017669976,476.3187658149982,477.25277757799995,477.752927188998,477.25277757799995,None,0,0,17,None,None,9,001,exponential,gyrb,0.35-0.75,2021_May_19_0941,color_judgement_and_subjective_perception,2020.2.10,60.016988048737744,
1,0.35,testing,1000,1,,,,,,,,,0,0,0,0,,,,,4,1,17,1,478.35290678899764,None,d,0.5722196869974141,478.4529324929972,None,477.85271866699986,478.2696936979992,479.0543853249983,479.553136792998,479.0543853249983,None,47,47,0,None,None,9,001,exponential,gyrb,0.35-0.75,2021_May_19_0941,color_judgement_and_subjective_perception,2020.2.10,60.016988048737744,
3,0.35,testing,1000,1,,,,,,,,,0,0,0,0,,,,,4,2,18,3,480.1531777079981,None,k,0.6518363839968515,480.25339976199757,None,479.6532118719988,480.0700982929993,480.9389449219998,481.43671818499934,480.9389449219998,None,0,0,14,None,None,9,001,exponential,gyrb,0.35-0.75,2021_May_19_0941,color_judgement_and_subjective_perception,2020.2.10,60.016988048737744,
1,0.35,testing,1000,1,,,,,,,,,0,0,0,0,,,,,4,3,19,1,482.02105080899855,None,f,0.8162080950023665,482.1209652829966,None,481.53657812899837,481.9378209009992,482.9545341209996,483.4547243149973,482.9545341209996,None,46,46,0,None,None,9,001,exponential,gyrb,0.35-0.75,2021_May_19_0941,color_judgement_and_subjective_perception,2020.2.10,60.016988048737744,
2,0.35,testing,1000,1,,,,,,,,,0,0,0,0,,,,,5,0,20,2,484.05479027699766,None,k,0.518432415999996,484.1547978439994,None,483.55450458999985,483.9714134279966,484.7071902969983,485.2050577299997,484.7071902969983,None,34,11,0,None,None,9,001,exponential,gyrb,0.35-0.75,2021_May_19_0941,color_judgement_and_subjective_perception,2020.2.10,60.016988048737744,
0,0.35,testing,1000,1,,,,,,,,,0,0,0,0,,,,,5,1,21,0,485.80473960999734,None,k,0.5122767659995588,485.9048369799966,None,485.3047697669972,485.7216479059971,486.4381112049996,486.9224831119973,486.4381112049996,None,0,16,0,None,None,9,001,exponential,gyrb,0.35-0.75,2021_May_19_0941,color_judgement_and_subjective_perception,2020.2.10,60.016988048737744,
2,0.35,testing,1000,1,,,,,,,,,0,0,0,0,,,,,5,2,22,2,487.522680793998,None,j,0.6426264029978483,487.6226112559998,None,487.0223822129992,487.4395547119966,488.292338801999,488.78952441,488.292338801999,None,35,12,0,None,None,9,001,exponential,gyrb,0.35-0.75,2021_May_19_0941,color_judgement_and_subjective_perception,2020.2.10,60.016988048737744,
0,0.35,testing,1000,1,,,,,,,,,0,0,0,0,,,,,5,3,23,0,489.38951191999877,None,j,0.7436278620007215,489.489517168,None,488.889385511,489.30641819899756,490.2575961989969,490.75661013999706,490.2575961989969,None,0,17,0,None,None,9,001,exponential,gyrb,0.35-0.75,2021_May_19_0941,color_judgement_and_subjective_perception,2020.2.10,60.016988048737744,
1,0.35,testing,1000,1,,,,,,,,,0,0,0,0,,,,,6,0,24,1,491.356618996997,None,f,0.5843957910001336,491.45680635799727,None,490.85631620799904,491.2733726109982,492.07631869899706,492.5743779529985,492.07631869899706,None,44,44,0,None,None,9,001,exponential,gyrb,0.35-0.75,2021_May_19_0941,color_judgement_and_subjective_perception,2020.2.10,60.016988048737744,
0,0.35,testing,1000,1,,,,,,,,,0,0,0,0,,,,,6,1,25,0,493.1743863419979,None,k,0.47092245100066066,493.27422674399713,None,492.674138741997,493.0911530859994,493.7760166509979,494.2745374699989,493.7760166509979,None,0,16,0,None,None,9,001,exponential,gyrb,0.35-0.75,2021_May_19_0941,color_judgement_and_subjective_perception,2020.2.10,60.016988048737744,
1,0.35,testing,1000,1,,,,,,,,,0,0,0,0,,,,,6,2,26,1,494.8747457949976,None,f,0.7384597860000213,494.974780818,None,494.3743044139992,494.79163413599963,495.74336984099864,496.24140161899777,495.74336984099864,None,41,41,0,None,None,9,001,exponential,gyrb,0.35-0.75,2021_May_19_0941,color_judgement_and_subjective_perception,2020.2.10,60.016988048737744,
0,0.35,testing,1000,1,,,,,,,,,0,0,0,0,,,,,6,3,27,0,496.8413190399988,None,k,0.45942326599833905,496.92572914599805,None,496.34132734000013,496.75825149199954,497.4109835659983,497.90918653100016,497.4109835659983,None,0,15,0,None,None,9,001,exponential,gyrb,0.35-0.75,2021_May_19_0941,color_judgement_and_subjective_perception,2020.2.10,60.016988048737744,
1,0.35,testing,1000,1,,,,,,,,,0,0,0,0,,,,,7,0,28,1,498.5095176859977,None,f,0.6797766400013643,498.60942095899736,None,498.008925670998,498.4261838269995,499.312261365998,499.8096751719968,499.312261365998,None,38,38,0,None,None,9,001,exponential,gyrb,0.35-0.75,2021_May_19_0941,color_judgement_and_subjective_perception,2020.2.10,60.016988048737744,
3,0.35,testing,1000,1,,,,,,,,,0,0,0,0,,,,,7,1,29,3,500.40955919299813,None,j,0.33951482200063765,500.5096353009976,None,499.90937891999783,500.3262220389988,500.87791289399684,501.3763433879976,500.87791289399684,None,0,0,4,None,None,9,001,exponential,gyrb,0.35-0.75,2021_May_19_0941,color_judgement_and_subjective_perception,2020.2.10,60.016988048737744,
0,0.35,testing,1000,1,,,,,,,,,0,0,0,0,,,,,7,2,30,0,501.9607731859978,None,k,0.5882169950018579,502.0610011659992,None,501.47604792399943,501.88470447599684,502.6776167979988,503.17757284099935,502.6776167979988,None,0,13,0,None,None,9,001,exponential,gyrb,0.35-0.75,2021_May_19_0941,color_judgement_and_subjective_perception,2020.2.10,60.016988048737744,
3,0.35,testing,1000,1,,,,,,,,,0,0,0,0,,,,,7,3,31,3,503.7775471859968,None,d,0.8837047580018407,503.8774103659998,None,503.27738886099905,503.69431163699846,504.79625363599916,505.29459558799863,504.79625363599916,None,0,0,3,None,None,9,001,exponential,gyrb,0.35-0.75,2021_May_19_0941,color_judgement_and_subjective_perception,2020.2.10,60.016988048737744,
2,0.35,testing,1000,1,,,,,,,,,0,0,0,0,,,,,8,0,32,2,505.89473981599804,None,k,0.7267136739974376,505.9945077389966,None,505.39444487999936,505.811374637,506.74720898599844,507.2290463239988,506.74720898599844,None,28,9,0,None,None,9,001,exponential,gyrb,0.35-0.75,2021_May_19_0941,color_judgement_and_subjective_perception,2020.2.10,60.016988048737744,
2,0.35,testing,1000,1,,,,,,,,,0,0,0,0,,,,,8,1,33,2,507.82909082399783,None,k,0.5121188060002169,507.92905032499766,None,507.3287959369991,507.745829012998,508.46227398599876,508.96243875099753,508.46227398599876,None,30,10,0,None,None,9,001,exponential,gyrb,0.35-0.75,2021_May_19_0941,color_judgement_and_subjective_perception,2020.2.10,60.016988048737744,
0,0.35,testing,1000,1,,,,,,,,,0,0,0,0,,,,,8,2,34,0,509.56296904899864,None,k,0.6822745390018099,509.6629603809997,None,509.0622233260001,509.4796568369966,510.36327534799784,510.8629504809978,510.36327534799784,None,0,18,0,None,None,9,001,exponential,gyrb,0.35-0.75,2021_May_19_0941,color_judgement_and_subjective_perception,2020.2.10,60.016988048737744,
0,0.35,testing,1000,1,,,,,,,,,0,0,0,0,,,,,8,3,35,0,511.46276446299817,None,k,0.5824404500017408,511.5627224789969,None,510.96274590999747,511.37952737199885,512.163718795,512.6638204569972,512.163718795,None,0,20,0,None,None,9,001,exponential,gyrb,0.35-0.75,2021_May_19_0941,color_judgement_and_subjective_perception,2020.2.10,60.016988048737744,
0,0.35,testing,1000,1,,,,,,,,,0,0,0,0,,,,,9,0,36,0,513.2640213889972,None,j,0.7889885660006257,513.3642354119984,None,512.7637694869991,513.1808513469987,514.1807373459997,514.6809062549983,514.1807373459997,None,0,22,0,None,None,9,001,exponential,gyrb,0.35-0.75,2021_May_19_0941,color_judgement_and_subjective_perception,2020.2.10,60.016988048737744,
1,0.35,testing,1000,1,,,,,,,,,0,0,0,0,,,,,9,1,37,1,515.2808585919993,None,f,0.33228960300039034,515.3808486489979,None,514.7807523829979,515.197721788998,515.7327991489983,516.2309858879999,515.7327991489983,None,42,42,0,None,None,9,001,exponential,gyrb,0.35-0.75,2021_May_19_0941,color_judgement_and_subjective_perception,2020.2.10,60.016988048737744,
0,0.35,testing,1000,1,,,,,,,,,0,0,0,0,,,,,9,2,38,0,516.8315437279998,None,k,0.6536634199983382,516.9155473409992,None,516.3307590099976,516.7478508539971,517.6009856439996,518.0989431929993,517.6009856439996,None,0,25,0,None,None,9,001,exponential,gyrb,0.35-0.75,2021_May_19_0941,color_judgement_and_subjective_perception,2020.2.10,60.016988048737744,
3,0.35,testing,1000,1,,,,,,,,,0,0,0,0,,,,,9,3,39,3,518.6989774479989,None,d,0.5222767109989945,518.7988688229998,None,518.1987920339998,518.6157539209999,519.3488701360002,519.8490761309986,519.3488701360002,None,0,0,10,None,None,9,001,exponential,gyrb,0.35-0.75,2021_May_19_0941,color_judgement_and_subjective_perception,2020.2.10,60.016988048737744,
0,0.35,testing,1000,1,,,,,,,,,0,0,0,0,,,,,10,0,40,0,520.449169233998,None,f,0.7477536960032012,520.5494719159979,None,519.9489271279999,520.3661728989973,521.3160138699968,521.8161434759968,521.3160138699968,None,0,28,0,None,None,9,001,exponential,gyrb,0.35-0.75,2021_May_19_0941,color_judgement_and_subjective_perception,2020.2.10,60.016988048737744,
0,0.35,testing,1000,1,,,,,,,,,0,0,0,0,,,,,10,1,41,0,522.4003616149967,None,f,0.4848553070005437,522.5002918509999,None,521.9042225889971,522.3171944729984,523.0169851309984,523.5171737839992,523.0169851309984,None,0,30,0,None,None,9,001,exponential,gyrb,0.35-0.75,2021_May_19_0941,color_judgement_and_subjective_perception,2020.2.10,60.016988048737744,
1,0.35,testing,1000,1,,,,,,,,,0,0,0,0,,,,,10,2,42,1,524.1175146219975,None,f,0.7595548450008209,524.2176635839969,None,523.6171682569984,524.0342411989986,525.003702621998,525.5010129529983,525.003702621998,None,46,46,0,None,None,9,001,exponential,gyrb,0.35-0.75,2021_May_19_0941,color_judgement_and_subjective_perception,2020.2.10,60.016988048737744,
1,0.35,testing,1000,1,,,,,,,,,0,0,0,0,,,,,10,3,43,1,526.1007805669979,None,f,0.34429583300152444,526.2009159989975,None,525.6007760819994,526.0176983469973,526.5673950729979,527.051872303,526.5673950729979,None,46,46,0,None,None,9,001,exponential,gyrb,0.35-0.75,2021_May_19_0941,color_judgement_and_subjective_perception,2020.2.10,60.016988048737744,
0,0.35,testing,1000,1,,,,,,,,,0,0,0,0,,,,,11,0,44,0,527.6523156039984,None,f,0.30492708800011314,527.7522912169989,None,527.1517989259992,527.5687668840001,528.0875564029993,528.5855059139976,528.0875564029993,None,0,32,0,None,None,9,001,exponential,gyrb,0.35-0.75,2021_May_19_0941,color_judgement_and_subjective_perception,2020.2.10,60.016988048737744,
0,0.35,testing,1000,1,,,,,,,,,0,0,0,0,,,,,11,1,45,0,529.1854623919971,None,d,0.7236852749992977,529.285464067998,None,528.6853160399987,529.1022936359986,530.0371880369967,530.5358635880002,530.0371880369967,None,0,32,0,None,None,9,001,exponential,gyrb,0.35-0.75,2021_May_19_0941,color_judgement_and_subjective_perception,2020.2.10,60.016988048737744,
2,0.35,testing,1000,1,,,,,,,,,0,0,0,0,,,,,11,2,46,2,531.1358819169982,None,j,0.8531183909981337,531.2360973079994,None,530.6356947219974,531.0526659509997,532.1202827929992,532.6203769019994,532.1202827929992,None,38,13,0,None,None,9,001,exponential,gyrb,0.35-0.75,2021_May_19_0941,color_judgement_and_subjective_perception,2020.2.10,60.016988048737744,
2,0.35,testing,1000,1,,,,,,,,,0,0,0,0,,,,,11,3,47,2,533.2203770999986,None,j,0.7688204939986463,533.3203571039994,None,532.7201383199972,533.1370496789968,534.1203019919994,534.6207193559967,534.1203019919994,None,36,12,0,None,None,9,001,exponential,gyrb,0.35-0.75,2021_May_19_0941,color_judgement_and_subjective_perception,2020.2.10,60.016988048737744,
2,0.35,testing,1000,1,,,,,,,,,0,0,0,0,,,,,12,0,48,2,535.2208534639976,None,j,0.4485010410026007,535.3207608979974,None,534.7206304479987,535.1373383459977,535.7876988369972,536.2874522489983,535.7876988369972,None,34,11,0,None,None,9,001,exponential,gyrb,0.35-0.75,2021_May_19_0941,color_judgement_and_subjective_perception,2020.2.10,60.016988048737744,
3,0.35,testing,1000,1,,,,,,,,,0,0,0,0,,,,,12,1,49,3,536.8863009719971,None,j,0.7013322439997864,536.9718261909984,None,536.3872298599999,536.8042638769984,537.7066513909995,538.2051167769969,537.7066513909995,None,0,0,9,None,None,9,001,exponential,gyrb,0.35-0.75,2021_May_19_0941,color_judgement_and_subjective_perception,2020.2.10,60.016988048737744,
0,0.35,testing,1000,1,,,,,,,,,0,0,0,0,,,,,12,2,50,0,538.8055081519997,None,d,0.7117718449990207,538.9054761979969,None,538.3050596199973,538.7221826979985,539.6413487569989,540.1390645309984,539.6413487569989,None,0,28,0,None,None,9,001,exponential,gyrb,0.35-0.75,2021_May_19_0941,color_judgement_and_subjective_perception,2020.2.10,60.016988048737744,
3,0.35,testing,1000,1,,,,,,,,,0,0,0,0,,,,,12,3,51,3,540.739069518997,None,d,0.5703135879994079,540.8388325399974,None,540.2387625019983,540.6557120090001,541.4402535289992,541.923264686,541.4402535289992,None,0,0,8,None,None,9,001,exponential,gyrb,0.35-0.75,2021_May_19_0941,color_judgement_and_subjective_perception,2020.2.10,60.016988048737744,
1,0.35,testing,1000,1,,,,,,,,,0,0,0,0,,,,,13,0,52,1,542.5235319509993,None,None,-1,542.6236760840002,None,542.0231520649977,542.4403362779994,543.5408925849988,544.040306887,543.5408925849988,None,36,36,0,None,None,9,001,exponential,gyrb,0.35-0.75,2021_May_19_0941,color_judgement_and_subjective_perception,2020.2.10,60.016988048737744,
3,0.35,testing,1000,1,,,,,,,,,0,0,0,0,,,,,13,1,53,3,544.6405173039966,None,d,0.4287528579989157,544.7404294439984,None,544.1401130659979,544.557149586999,545.1920425849967,545.6904816589995,545.1920425849967,None,0,0,7,None,None,9,001,exponential,gyrb,0.35-0.75,2021_May_19_0941,color_judgement_and_subjective_perception,2020.2.10,60.016988048737744,
2,0.35,testing,1000,1,,,,,,,,,0,0,0,0,,,,,13,2,54,2,546.2910167519985,None,f,0.6583879059980973,546.3908497969969,None,545.7902920909983,546.207234532998,547.0754467679981,547.5750791519968,547.0754467679981,None,29,10,0,None,None,9,001,exponential,gyrb,0.35-0.75,2021_May_19_0941,color_judgement_and_subjective_perception,2020.2.10,60.016988048737744,
0,0.35,testing,1000,1,,,,,,,,,0,0,0,0,,,,,13,3,55,0,548.1752205329976,None,j,0.5420928679995995,548.2750408020001,None,547.6749759649974,548.091866216997,548.8416359409966,549.341813777999,548.8416359409966,None,0,26,0,None,None,9,001,exponential,gyrb,0.35-0.75,2021_May_19_0941,color_judgement_and_subjective_perception,2020.2.10,60.016988048737744,
3,0.35,testing,1000,1,,,,,,,,,0,0,0,0,,,,,14,0,56,3,549.9423597309979,None,k,0.6388687450016732,550.0423559379997,None,549.4418251899988,549.8588511079979,550.7118777199976,551.208780162,550.7118777199976,None,0,0,11,None,None,9,001,exponential,gyrb,0.35-0.75,2021_May_19_0941,color_judgement_and_subjective_perception,2020.2.10,60.016988048737744,
1,0.35,testing,1000,1,,,,,,,,,0,0,0,0,,,,,14,1,57,1,551.8089368239998,None,d,0.8210656509982073,551.9001490199989,None,551.3087807049997,551.7255684459997,552.744853745,553.2435744229988,552.744853745,None,36,36,0,None,None,9,001,exponential,gyrb,0.35-0.75,2021_May_19_0941,color_judgement_and_subjective_perception,2020.2.10,60.016988048737744,
1,0.35,testing,1000,1,,,,,,,,,0,0,0,0,,,,,14,2,58,1,553.8435868779998,None,f,0.7775026599992998,553.9436565019969,None,553.3434277929991,553.7603108369985,554.7465021499993,555.2438450489972,554.7465021499993,None,36,36,0,None,None,9,001,exponential,gyrb,0.35-0.75,2021_May_19_0941,color_judgement_and_subjective_perception,2020.2.10,60.016988048737744,
3,0.35,testing,1000,1,,,,,,,,,0,0,0,0,,,,,14,3,59,3,555.8437531459967,None,k,0.8895159509993391,555.9436234579989,None,555.3435805659974,555.7605208619971,556.86225939,557.345045738999,556.86225939,None,0,0,9,None,None,9,001,exponential,gyrb,0.35-0.75,2021_May_19_0941,color_judgement_and_subjective_perception,2020.2.10,60.016988048737744,
1,0.35,testing,1000,1,,,,,,,,,0,0,0,0,,,,,15,0,60,1,557.9450042549979,None,f,0.43625494899970363,558.0449849609977,None,557.4449031849981,557.8616614139974,558.5153233679994,559.011777492,558.5153233679994,None,33,33,0,None,None,9,001,exponential,gyrb,0.35-0.75,2021_May_19_0941,color_judgement_and_subjective_perception,2020.2.10,60.016988048737744,
3,0.35,testing,1000,1,,,,,,,,,0,0,0,0,,,,,15,1,61,3,559.6119217269988,None,j,0.6974296539992793,559.7117459149995,None,559.1115422459989,559.5285389349992,560.4301131339998,560.928602562999,560.4301131339998,None,0,0,6,None,None,9,001,exponential,gyrb,0.35-0.75,2021_May_19_0941,color_judgement_and_subjective_perception,2020.2.10,60.016988048737744,
